Treatment,Session,Period,Subject,Profit,TotalProfit,PlayerInterval[1] (0-10),PlayerInterval[2],PlayerInterval[3],PlayerInterval[4],PlayerInterval[5],PlayerInterval[6],PlayerInterval[7],PlayerInterval[8],PlayerInterval[9],PlayerInterval[10],Diff belief Abs DIV TARGETV,Diff belief Absolute value,Diff belief,Guess,Guess DIV TARGETV,TimeOKGuessOK,Time To Guess,TimeOKItervalSelectionOK,Time for Iterval Selection,PlayerSquareSum,Average,TargetValue,ABS Diff DIV TARGETV,ABS Diff,BestDiff,IsWinner,NumWinners,DI=Ct-1-Ct /Ct-1,Belief sig,,,,,,תאים עזר,Belief AVERAGE*2/3,5,15.5,25.5,35.5,45.5,55.5,65.5,75.5,85.5,95.5,,,עזק סטית תקן,5,15.5,25.5,35.5,,,,,
1,1,1,1,3.875,13.875,0,0,1,2,1,0,0,0,0,0,0.4974619289,16.33333333,-16.33333333,40,1.218274112,8976,1023,8949,1050,0.125,49.25,32.83333333,0.2182741117,7.166666667,2.166666667,0,1,,25.7706767,,,,,,,23.66666667,0,0,25.5,71,45.5,0,0,0,0,0,,,560.1111111,560.1111111,3.361111111,2240.444444,476.6944444,560.1111111,560.1111111,560.1111111,560.1111111,560.1111111
1,1,1,2,3.375,13.375,0,0,0,0,0,2,1,1,0,0,0.9137055838,30,-30,72,2.192893401,8991,1008,8873,1126,0.625,49.25,32.83333333,1.192893401,39.16666667,2.166666667,0,1,,43.33993539,,,,,,,42,0,0,0,0,0,111,65.5,75.5,0,0,,,1764,1764,1764,1764,1764,4761,552.25,1122.25,1764,1764
1,1,1,3,3.75,13.75,0,1,0,1,1,0,1,0,0,0,0.7005076142,23,-23,50,1.52284264,8958,1041,8926,1073,0.25,49.25,32.83333333,0.5228426396,17.16666667,2.166666667,0,1,,25.30414986,,,,,,,27,0,15.5,0,35.5,45.5,0,65.5,0,0,0,,,729,132.25,729,72.25,342.25,729,1482.25,729,729,729
1,1,1,4,23.75,33.75,0,0,0,1,0,1,1,1,0,0,0.1116751269,3.666666667,3.666666667,35,1.065989848,8986,1013,8959,1040,0.25,49.25,32.83333333,0.06598984772,2.166666667,2.166666667,1,1,,33.67607129,,,,,,,38.66666667,0,0,0,35.5,0,55.5,65.5,75.5,0,0,,,1495.111111,1495.111111,1495.111111,10.02777778,1495.111111,283.3611111,720.0277778,1356.694444,1495.111111,1495.111111
1,2,1,1,3.75,13.75,0,0,0,1,1,1,1,0,0,0,0.8540540541,26.33333333,-26.33333333,60,1.945945946,8945,1054,8971,1028,0.25,46.25,30.83333333,0.9459459459,29.16666667,0.8333333333,0,1,-0.5,29.04154113,,,,,,,33.66666667,0,0,0,35.5,45.5,55.5,65.5,0,0,0,,,1133.444444,1133.444444,1133.444444,3.361111111,140.0277778,476.6944444,1013.361111,1133.444444,1133.444444,1133.444444
1,2,1,2,23.625,33.625,0,0,2,1,1,0,0,0,0,0,0.2594594595,8,-8,30,0.972972973,8945,1054,8943,1056,0.375,46.25,30.83333333,0.02702702703,0.8333333333,0.8333333333,1,1,0.5833333333,22.2789138,,,,,,,22,0,0,51,35.5,45.5,0,0,0,0,0,,,484,484,841,182.25,552.25,484,484,484,484,484
1,2,1,3,3.375,13.375,0,0,0,0,1,0,1,1,1,0,0.4756756757,14.66666667,-14.66666667,60,1.945945946,8987,1012,8960,1039,0.625,46.25,30.83333333,0.9459459459,29.16666667,0.8333333333,0,1,-0.2,39.06504547,,,,,,,45.33333333,0,0,0,0,45.5,0,65.5,75.5,85.5,0,,,2055.111111,2055.111111,2055.111111,2055.111111,0.02777777778,2055.111111,406.6944444,910.0277778,1613.361111,2055.111111
1,2,1,4,3.625,13.625,0,0,1,2,1,0,0,0,0,0,0.3675675676,11.33333333,-11.33333333,35,1.135135135,8980,1019,8973,1026,0.375,46.25,30.83333333,0.1351351351,4.166666667,0.8333333333,0,1,0,25.7706767,,,,,,,23.66666667,0,0,25.5,71,45.5,0,0,0,0,0,,,560.1111111,560.1111111,3.361111111,2240.444444,476.6944444,560.1111111,560.1111111,560.1111111,560.1111111,560.1111111
1,3,1,1,3.125,13.125,0,0,1,2,1,0,0,0,0,0,0.2816901408,3.333333333,-3.333333333,27,2.281690141,8939,1060,8965,1034,0.875,17.75,11.83333333,1.281690141,15.16666667,0.8333333333,0,1,0.55,25.7706767,,,,,,,23.66666667,0,0,25.5,71,45.5,0,0,0,0,0,,,560.1111111,560.1111111,3.361111111,2240.444444,476.6944444,560.1111111,560.1111111,560.1111111,560.1111111,560.1111111
1,3,1,2,3.625,13.625,0,1,2,1,0,0,0,0,0,0,0.2535211268,3,-3,20,1.690140845,8966,1033,8972,1027,0.375,17.75,11.83333333,0.6901408451,8.166666667,0.8333333333,0,1,0.3333333333,18.77098825,,,,,,,17,0,15.5,51,35.5,0,0,0,0,0,0,,,289,2.25,1156,342.25,289,289,289,289,289,289
1,3,1,3,23.875,33.875,0,2,2,0,0,0,0,0,0,0,0.2253521127,2.666666667,2.666666667,11,0.9295774648,8970,1029,8988,1011,0.125,17.75,11.83333333,0.07042253521,0.8333333333,0.8333333333,1,1,0.8166666667,17.85621585,,,,,,,13.66666667,0,31,51,0,0,0,0,0,0,0,,,186.7777778,300.4444444,1393.777778,186.7777778,186.7777778,186.7777778,186.7777778,186.7777778,186.7777778,186.7777778
1,3,1,4,3.625,13.625,1,1,1,0,0,0,0,0,0,1,0.8943661972,10.58333333,10.58333333,13,1.098591549,8982,1017,8966,1033,0.375,17.75,11.83333333,0.0985915493,1.166666667,0.8333333333,0,1,0.6285714286,29.87206517,,,,,,,23.58333333,5,15.5,25.5,0,0,0,0,0,0,95.5,,,345.3402778,65.34027778,3.673611111,556.1736111,556.1736111,556.1736111,556.1736111,556.1736111,556.1736111,5172.006944
1,4,1,1,3.625,13.625,0,0,0,0,1,2,1,0,0,0,0.672,28,-28,65,1.56,8989,1010,8975,1024,0.375,62.5,41.66666667,0.56,23.33333333,8.333333333,0,2,-1.407407407,39.92931254,,,,,,,37,0,0,0,0,45.5,111,65.5,0,0,0,,,1369,1369,1369,1369,72.25,5476,812.25,1369,1369,1369
1,4,1,2,13.75,23.75,0,0,0,1,2,1,0,0,0,0,0.472,19.66666667,-19.66666667,50,1.2,8979,1020,8975,1024,0.25,62.5,41.66666667,0.2,8.333333333,8.333333333,1,2,-1.5,32.83485614,,,,,,,30.33333333,0,0,0,35.5,91,55.5,0,0,0,0,,,920.1111111,920.1111111,920.1111111,26.69444444,3680.444444,633.3611111,920.1111111,920.1111111,920.1111111,920.1111111
1,4,1,3,13.875,23.875,0,0,0,0,2,0,1,0,0,1,0.192,8,-8,50,1.2,8972,1027,8951,1048,0.125,62.5,41.66666667,0.2,8.333333333,8.333333333,1,2,-3.545454545,42.61865789,,,,,,,42,0,0,0,0,91,0,65.5,0,0,95.5,,,1764,1764,1764,1764,2401,1764,552.25,1764,1764,2862.25
1,4,1,4,3.375,13.375,0,0,0,0,0,0,0,0,2,2,0.592,24.66666667,-24.66666667,85,2.04,8946,1053,8962,1037,0.625,62.5,41.66666667,1.04,43.33333333,8.333333333,0,2,-5.538461538,76.44722217,,,,,,,60.33333333,0,0,0,0,0,0,0,0,171,191,,,3640.111111,3640.111111,3640.111111,3640.111111,3640.111111,3640.111111,3640.111111,3640.111111,12247.11111,17073.77778
1,5,1,1,3.375,13.375,0,0,1,1,2,0,0,0,0,0,1.178807947,29.66666667,-29.66666667,55,2.185430464,8985,1014,8974,1025,0.625,37.75,25.16666667,1.185430464,29.83333333,9.833333333,0,1,0.1538461538,29.84617973,,,,,,,25.33333333,0,0,25.5,35.5,91,0,0,0,0,0,,,641.7777778,641.7777778,0.02777777778,103.3611111,4312.111111,641.7777778,641.7777778,641.7777778,641.7777778,641.7777778
1,5,1,2,3.875,13.875,1,1,0,1,0,1,0,0,0,0,0.3410596026,8.583333333,8.583333333,10,0.3973509934,8996,1003,8961,1038,0.125,37.75,25.16666667,0.6026490066,15.16666667,9.833333333,0,1,0.8,19.78653442,,,,,,,18.58333333,5,15.5,0,35.5,0,55.5,0,0,0,0,,,184.5069444,9.506944444,345.3402778,286.1736111,345.3402778,1362.840278,345.3402778,345.3402778,345.3402778,345.3402778
1,5,1,3,3.625,13.625,0,0,0,0,0,2,0,0,0,2,0.02649006623,0.6666666667,-0.6666666667,51,2.026490066,8965,1034,8974,1025,0.375,37.75,25.16666667,1.026490066,25.83333333,9.833333333,0,1,-0.02,66.13252688,,,,,,,50.33333333,0,0,0,0,0,111,0,0,0,191,,,2533.444444,2533.444444,2533.444444,2533.444444,2533.444444,3680.444444,2533.444444,2533.444444,2533.444444,19787.11111
1,5,1,4,23.125,33.125,0,0,0,1,3,0,0,0,0,0,0.2516556291,6.333333333,-6.333333333,35,1.390728477,8927,1072,8973,1026,0.875,37.75,25.16666667,0.3907284768,9.833333333,9.833333333,1,1,0.5882352941,42.71878327,,,,,,,28.66666667,0,0,0,35.5,136.5,0,0,0,0,0,,,821.7777778,821.7777778,821.7777778,46.69444444,11628.02778,821.7777778,821.7777778,821.7777778,821.7777778,821.7777778
1,6,1,1,3.625,13.625,0,0,0,1,2,1,0,0,0,0,1.210884354,29.66666667,-29.66666667,60,2.448979592,8988,1011,8983,1016,0.375,36.75,24.5,1.448979592,35.5,11.5,0,1,-0.09090909091,32.83485614,,,,,,,30.33333333,0,0,0,35.5,91,55.5,0,0,0,0,,,920.1111111,920.1111111,920.1111111,26.69444444,3680.444444,633.3611111,920.1111111,920.1111111,920.1111111,920.1111111
1,6,1,2,23.625,33.625,0,0,0,1,2,1,0,0,0,0,0.231292517,5.666666667,-5.666666667,36,1.469387755,8942,1057,8942,1057,0.375,36.75,24.5,0.4693877551,11.5,11.5,1,1,-2.6,32.83485614,,,,,,,30.33333333,0,0,0,35.5,91,55.5,0,0,0,0,,,920.1111111,920.1111111,920.1111111,26.69444444,3680.444444,633.3611111,920.1111111,920.1111111,920.1111111,920.1111111
1,6,1,3,3.75,13.75,0,0,0,1,1,1,0,1,0,0,0.9931972789,24.33333333,24.33333333,11,0.4489795918,8988,1011,8964,1035,0.25,36.75,24.5,0.5510204082,13.5,11.5,0,1,0.7843137255,31.00663012,,,,,,,35.33333333,0,0,0,35.5,45.5,55.5,0,75.5,0,0,,,1248.444444,1248.444444,1248.444444,0.02777777778,103.3611111,406.6944444,1248.444444,1613.361111,1248.444444,1248.444444
1,6,1,4,3.375,13.375,1,0,0,0,1,0,1,1,0,0,0.3299319728,8.083333333,-8.083333333,40,1.632653061,8929,1070,8966,1033,0.625,36.75,24.5,0.6326530612,15.5,11.5,0,1,-0.1428571429,31.69921573,,,,,,,31.91666667,5,0,0,0,45.5,0,65.5,75.5,0,0,,,724.5069444,1018.673611,1018.673611,1018.673611,184.5069444,1018.673611,1127.840278,1899.506944,1018.673611,1018.673611
1,1,2,1,3.875,17.75,0,0,1,2,1,0,0,0,0,0,0.4788732394,11.33333333,-11.33333333,35,1.478873239,8994,1005,8980,1019,0.125,35.5,23.66666667,0.4788732394,11.33333333,3.666666667,0,1,0.4166666667,25.7706767,,,,,,,23.66666667,0,0,25.5,71,45.5,0,0,0,0,0,,,560.1111111,560.1111111,3.361111111,2240.444444,476.6944444,560.1111111,560.1111111,560.1111111,560.1111111,560.1111111
1,1,2,2,3.75,17.125,0,0,0,1,2,1,0,0,0,0,0.7042253521,16.66666667,-16.66666667,47,1.985915493,8990,1009,8961,1038,0.25,35.5,23.66666667,0.985915493,23.33333333,3.666666667,0,1,-0.3055555556,32.83485614,,,,,,,30.33333333,0,0,0,35.5,91,55.5,0,0,0,0,,,920.1111111,920.1111111,920.1111111,26.69444444,3680.444444,633.3611111,920.1111111,920.1111111,920.1111111,920.1111111
1,1,2,3,3.375,17.125,0,0,1,0,1,2,0,0,0,0,0.4084507042,9.666666667,-9.666666667,40,1.690140845,8993,1006,8974,1025,0.625,35.5,23.66666667,0.6901408451,16.33333333,3.666666667,0,1,-2.636363636,36.33356269,,,,,,,30.33333333,0,0,25.5,0,45.5,111,0,0,0,0,,,920.1111111,920.1111111,23.36111111,920.1111111,230.0277778,6507.111111,920.1111111,920.1111111,920.1111111,920.1111111
1,1,2,4,23.875,57.625,0,2,0,1,1,0,0,0,0,0,0.05633802817,1.333333333,-1.333333333,20,0.8450704225,8977,1022,8954,1045,0.125,35.5,23.66666667,0.1549295775,3.666666667,3.666666667,1,1,0.5,18.95945967,,,,,,,18.66666667,0,31,0,35.5,45.5,0,0,0,0,0,,,348.4444444,152.1111111,348.4444444,283.3611111,720.0277778,348.4444444,348.4444444,348.4444444,348.4444444,348.4444444
1,2,2,1,3.875,17.625,0,0,0,2,1,1,0,0,0,0,0.3835616438,9.333333333,-9.333333333,38,1.561643836,8990,1009,8980,1019,0.125,36.5,24.33333333,0.5616438356,13.66666667,1.333333333,0,1,-0.08571428571,29.2368679,,,,,,,28.66666667,0,0,0,71,45.5,55.5,0,0,0,0,,,821.7777778,821.7777778,821.7777778,1792.111111,283.3611111,720.0277778,821.7777778,821.7777778,821.7777778,821.7777778
1,2,2,2,3.875,37.5,0,0,1,1,1,1,0,0,0,0,0.3287671233,8,-8,35,1.438356164,8972,1027,8987,1012,0.125,36.5,24.33333333,0.4383561644,10.66666667,1.333333333,0,1,0.2553191489,23.67065694,,,,,,,27,0,0,25.5,35.5,45.5,55.5,0,0,0,0,,,729,729,2.25,72.25,342.25,812.25,729,729,729,729
1,2,2,3,3.5,16.875,0,1,0,0,1,1,0,0,1,0,0.6712328767,16.33333333,-16.33333333,50,2.054794521,8995,1004,8975,1024,0.5,36.5,24.33333333,1.054794521,25.66666667,1.333333333,0,1,-0.25,32.30187473,,,,,,,33.66666667,0,15.5,0,0,45.5,55.5,0,0,85.5,0,,,1133.444444,330.0277778,1133.444444,1133.444444,140.0277778,476.6944444,1133.444444,1133.444444,2686.694444,1133.444444
1,2,2,4,23.75,37.375,0,1,2,1,0,0,0,0,0,0,0.2465753425,6,-6,23,0.9452054795,8978,1021,8987,1012,0.25,36.5,24.33333333,0.05479452055,1.333333333,1.333333333,1,1,-0.15,18.77098825,,,,,,,17,0,15.5,51,35.5,0,0,0,0,0,0,,,289,2.25,1156,342.25,289,289,289,289,289,289
1,3,2,1,3.125,16.25,0,4,0,0,0,0,0,0,0,0,0.02298850575,0.3333333333,0.3333333333,10,0.6896551724,8949,1050,8984,1015,0.875,21.75,14.5,0.3103448276,4.5,0.5,0,1,0.7368421053,19.05372521,,,,,,,10.33333333,0,62,0,0,0,0,0,0,0,0,,,106.7777778,2669.444444,106.7777778,106.7777778,106.7777778,106.7777778,106.7777778,106.7777778,106.7777778,106.7777778
1,3,2,2,3.625,17.25,4,0,0,0,0,0,0,0,0,0,0.2528735632,3.666666667,-3.666666667,7,0.4827586207,8977,1022,8951,1048,0.375,21.75,14.5,0.5172413793,7.5,0.5,0,1,0.8,6.146362972,,,,,,,3.333333333,20,0,0,0,0,0,0,0,0,0,,,277.7777778,11.11111111,11.11111111,11.11111111,11.11111111,11.11111111,11.11111111,11.11111111,11.11111111,11.11111111
1,3,2,3,3.75,37.625,1,0,0,0,1,1,1,0,0,0,1.82183908,26.41666667,-26.41666667,55,3.793103448,8974,1025,8979,1020,0.25,21.75,14.5,2.793103448,40.5,0.5,0,1,-0.1,27.98523916,,,,,,,28.58333333,5,0,0,0,45.5,55.5,65.5,0,0,0,,,556.1736111,817.0069444,817.0069444,817.0069444,286.1736111,724.5069444,1362.840278,817.0069444,817.0069444,817.0069444
1,3,2,4,23.625,37.25,1,3,0,0,0,0,0,0,0,0,0.4425287356,6.416666667,-6.416666667,15,1.034482759,8990,1009,8984,1015,0.375,21.75,14.5,0.03448275862,0.5,0.5,1,1,0.347826087,14.28251651,,,,,,,8.583333333,5,46.5,0,0,0,0,0,0,0,0,,,12.84027778,1437.673611,73.67361111,73.67361111,73.67361111,73.67361111,73.67361111,73.67361111,73.67361111,73.67361111
1,4,2,1,23.75,37.375,0,0,0,0,2,1,0,1,0,0,0.05940594059,2,-2,39,1.158415842,8988,1011,8978,1021,0.25,50.5,33.66666667,0.1584158416,5.333333333,5.333333333,1,1,-2.9,37.84640009,,,,,,,37,0,0,0,0,91,55.5,0,75.5,0,0,,,1369,1369,1369,1369,2916,342.25,1369,1482.25,1369,1369
1,4,2,2,3.75,27.5,0,0,0,0,3,1,0,0,0,0,0.4752475248,16,-16,48,1.425742574,8987,1012,8976,1023,0.25,50.5,33.66666667,0.4257425743,14.33333333,5.333333333,0,1,-5.857142857,44.34467274,,,,,,,32,0,0,0,0,136.5,55.5,0,0,0,0,,,1024,1024,1024,1024,10920.25,552.25,1024,1024,1024,1024
1,4,2,3,3.75,27.625,0,0,0,0,3,0,0,0,0,1,0.1881188119,6.333333333,-6.333333333,45,1.336633663,8966,1033,8975,1024,0.25,50.5,33.66666667,0.3366336634,11.33333333,5.333333333,0,1,0.1818181818,49.76170996,,,,,,,38.66666667,0,0,0,0,136.5,0,0,0,0,95.5,,,1495.111111,1495.111111,1495.111111,1495.111111,9571.361111,1495.111111,1495.111111,1495.111111,1495.111111,3230.027778
1,4,2,4,3.25,16.625,0,0,0,0,0,2,0,1,0,1,0.6831683168,23,-23,70,2.079207921,8970,1029,8971,1028,0.75,50.5,33.66666667,1.079207921,36.33333333,5.333333333,0,1,-3.666666667,47.66917243,,,,,,,47,0,0,0,0,0,111,0,75.5,0,95.5,,,2209,2209,2209,2209,2209,4096,2209,812.25,2209,2352.25
1,5,2,1,3.75,17.125,1,1,0,0,1,1,0,0,0,0,1.188,24.75,-24.75,45,2.16,8994,1005,8983,1016,0.25,31.25,20.83333333,1.16,24.16666667,5.833333333,0,1,-0.1538461538,21.43740889,,,,,,,20.25,5,15.5,0,0,45.5,55.5,0,0,0,0,,,232.5625,22.5625,410.0625,410.0625,637.5625,1242.5625,410.0625,410.0625,410.0625,410.0625
1,5,2,2,23.875,37.75,0,2,1,1,0,0,0,0,0,0,0.016,0.3333333333,0.3333333333,15,0.72,8971,1028,8981,1018,0.125,31.25,20.83333333,0.28,5.833333333,5.833333333,1,1,0.6875,15.49605685,,,,,,,15.33333333,0,31,25.5,35.5,0,0,0,0,0,0,,,235.1111111,245.4444444,103.3611111,406.6944444,235.1111111,235.1111111,235.1111111,235.1111111,235.1111111,235.1111111
1,5,2,3,3.625,17.25,1,0,0,2,0,1,0,0,0,0,0.628,13.08333333,-13.08333333,35,1.68,8992,1007,8968,1031,0.375,31.25,20.83333333,0.68,14.16666667,5.833333333,0,1,0.2222222222,26.80591249,,,,,,,21.91666667,5,0,0,71,0,55.5,0,0,0,0,,,286.1736111,480.3402778,480.3402778,2409.173611,480.3402778,1127.840278,480.3402778,480.3402778,480.3402778,480.3402778
1,5,2,4,3.875,37,0,0,1,1,2,0,0,0,0,0,0.224,4.666666667,-4.666666667,30,1.44,8988,1011,8982,1017,0.125,31.25,20.83333333,0.44,9.166666667,5.833333333,0,1,0.5714285714,29.84617973,,,,,,,25.33333333,0,0,25.5,35.5,91,0,0,0,0,0,,,641.7777778,641.7777778,0.02777777778,103.3611111,4312.111111,641.7777778,641.7777778,641.7777778,641.7777778,641.7777778
1,6,2,1,23.875,37.5,0,2,1,1,0,0,0,0,0,0,0.28,4.666666667,-4.666666667,20,1.2,8995,1004,8984,1015,0.125,25,16.66666667,0.2,3.333333333,3.333333333,1,1,0.5555555556,15.49605685,,,,,,,15.33333333,0,31,25.5,35.5,0,0,0,0,0,0,,,235.1111111,245.4444444,103.3611111,406.6944444,235.1111111,235.1111111,235.1111111,235.1111111,235.1111111,235.1111111
1,6,2,2,3.875,37.5,0,0,2,2,0,0,0,0,0,0,0.1,1.666666667,-1.666666667,22,1.32,8975,1024,8983,1016,0.125,25,16.66666667,0.32,5.333333333,3.333333333,0,1,-0.4666666667,26.10576777,,,,,,,20.33333333,0,0,51,71,0,0,0,0,0,0,,,413.4444444,413.4444444,940.4444444,2567.111111,413.4444444,413.4444444,413.4444444,413.4444444,413.4444444,413.4444444
1,6,2,3,3.5,17.25,0,0,0,1,1,1,1,0,0,0,0.04,0.6666666667,0.6666666667,33,1.98,8985,1014,8990,1009,0.5,25,16.66666667,0.98,16.33333333,3.333333333,0,1,0.05714285714,29.04154113,,,,,,,33.66666667,0,0,0,35.5,45.5,55.5,65.5,0,0,0,,,1133.444444,1133.444444,1133.444444,3.361111111,140.0277778,476.6944444,1013.361111,1133.444444,1133.444444,1133.444444
1,6,2,4,3.625,17,0,1,0,1,0,0,1,1,0,0,0.42,7,7,25,1.5,8987,1012,8986,1013,0.375,25,16.66666667,0.5,8.333333333,3.333333333,0,1,0.1666666667,30.72946469,,,,,,,32,0,15.5,0,35.5,0,0,65.5,75.5,0,0,,,1024,272.25,1024,12.25,1024,1024,1122.25,1892.25,1024,1024
1,1,3,1,23.875,41.625,0,2,1,1,0,0,0,0,0,0,0.1509433962,2.666666667,-2.666666667,18,1.018867925,8993,1006,8977,1022,0.125,26.5,17.66666667,0.01886792453,0.3333333333,0.3333333333,1,1,0.1,15.49605685,,,,,,,15.33333333,0,31,25.5,35.5,0,0,0,0,0,0,,,235.1111111,245.4444444,103.3611111,406.6944444,235.1111111,235.1111111,235.1111111,235.1111111,235.1111111,235.1111111
1,1,3,2,3.375,20.5,0,0,3,1,0,0,0,0,0,0,0.1320754717,2.333333333,-2.333333333,21,1.188679245,8978,1021,8979,1020,0.625,26.5,17.66666667,0.1886792453,3.333333333,0.3333333333,0,1,0.04545454545,25.32905666,,,,,,,18.66666667,0,0,76.5,35.5,0,0,0,0,0,0,,,348.4444444,348.4444444,3344.694444,283.3611111,348.4444444,348.4444444,348.4444444,348.4444444,348.4444444,348.4444444
1,1,3,3,3.375,20.5,0,0,1,2,1,0,0,0,0,0,1.603773585,28.33333333,-28.33333333,52,2.943396226,8992,1007,8975,1024,0.625,26.5,17.66666667,1.943396226,34.33333333,0.3333333333,0,1,-0.5757575758,25.7706767,,,,,,,23.66666667,0,0,25.5,71,45.5,0,0,0,0,0,,,560.1111111,560.1111111,3.361111111,2240.444444,476.6944444,560.1111111,560.1111111,560.1111111,560.1111111,560.1111111
1,1,3,4,3.875,61.5,0,2,1,1,0,0,0,0,0,0,0.01886792453,0.3333333333,0.3333333333,15,0.8490566038,8936,1063,8966,1033,0.125,26.5,17.66666667,0.1509433962,2.666666667,0.3333333333,0,1,0.4,15.49605685,,,,,,,15.33333333,0,31,25.5,35.5,0,0,0,0,0,0,,,235.1111111,245.4444444,103.3611111,406.6944444,235.1111111,235.1111111,235.1111111,235.1111111,235.1111111,235.1111111
1,2,3,1,3.375,21,0,0,1,2,1,0,0,0,0,0,0.1025641026,1.333333333,-1.333333333,25,1.923076923,8998,1001,8992,1007,0.625,19.5,13,0.9230769231,12,0,0,1,-0.3888888889,25.7706767,,,,,,,23.66666667,0,0,25.5,71,45.5,0,0,0,0,0,,,560.1111111,560.1111111,3.361111111,2240.444444,476.6944444,560.1111111,560.1111111,560.1111111,560.1111111,560.1111111
1,2,3,2,3.5,41,0,0,2,2,0,0,0,0,0,0,0.358974359,4.666666667,-4.666666667,25,1.923076923,8993,1006,8979,1020,0.5,19.5,13,0.9230769231,12,0,0,1,-0.1904761905,26.10576777,,,,,,,20.33333333,0,0,51,71,0,0,0,0,0,0,,,413.4444444,413.4444444,940.4444444,2567.111111,413.4444444,413.4444444,413.4444444,413.4444444,413.4444444,413.4444444
1,2,3,3,3.875,20.75,1,2,1,0,0,0,0,0,0,0,0.3653846154,4.75,-4.75,15,1.153846154,8997,1002,8992,1007,0.125,19.5,13,0.1538461538,2,0,0,1,0.7115384615,11.94204756,,,,,,,10.25,5,31,25.5,0,0,0,0,0,0,0,,,27.5625,430.5625,232.5625,105.0625,105.0625,105.0625,105.0625,105.0625,105.0625,105.0625
1,2,3,4,23.875,61.25,0,1,2,1,0,0,0,0,0,0,0.3076923077,4,4,13,1,8989,1010,8992,1007,0.125,19.5,13,0,0,0,1,1,0.1333333333,18.77098825,,,,,,,17,0,15.5,51,35.5,0,0,0,0,0,0,,,289,2.25,1156,342.25,289,289,289,289,289,289
1,3,3,1,2.875,19.125,4,0,0,0,0,0,0,0,0,0,0.04166666667,0.3333333333,0.3333333333,3,0.375,8990,1009,8993,1006,1.125,12,8,0.625,5,4,0,1,0.88,6.146362972,,,,,,,3.333333333,20,0,0,0,0,0,0,0,0,0,,,277.7777778,11.11111111,11.11111111,11.11111111,11.11111111,11.11111111,11.11111111,11.11111111,11.11111111,11.11111111
1,3,3,2,24,41.25,1,3,0,0,0,0,0,0,0,0,0.4270833333,3.416666667,-3.416666667,12,1.5,8994,1005,8979,1020,0,12,8,0.5,4,4,1,1,0.52,14.28251651,,,,,,,8.583333333,5,46.5,0,0,0,0,0,0,0,0,,,12.84027778,1437.673611,73.67361111,73.67361111,73.67361111,73.67361111,73.67361111,73.67361111,73.67361111,73.67361111
1,3,3,3,3.625,41.25,2,1,1,0,0,0,0,0,0,0,0.9375,7.5,-7.5,16,2,8984,1015,8976,1023,0.375,12,8,1,8,4,0,1,-0.06666666667,9.19782583,,,,,,,8.5,10,15.5,25.5,0,0,0,0,0,0,0,,,2.25,49,289,72.25,72.25,72.25,72.25,72.25,72.25,72.25
1,3,3,4,3.75,41,0,2,1,1,0,0,0,0,0,0,0.2083333333,1.666666667,-1.666666667,17,2.125,8994,1005,8980,1019,0.25,12,8,1.125,9,4,0,1,-0.3076923077,15.49605685,,,,,,,15.33333333,0,31,25.5,35.5,0,0,0,0,0,0,,,235.1111111,245.4444444,103.3611111,406.6944444,235.1111111,235.1111111,235.1111111,235.1111111,235.1111111,235.1111111
1,4,3,1,23.875,61.25,0,0,0,1,2,0,1,0,0,0,0.12,3,3,29,1.16,8998,1001,8986,1013,0.125,37.5,25,0.16,4,4,1,1,-8.666666667,34.32710299,,,,,,,32,0,0,0,35.5,91,0,65.5,0,0,0,,,1024,1024,1024,12.25,3481,1024,1122.25,1024,1024,1024
1,4,3,2,3.75,31.25,0,0,0,2,1,1,0,0,0,0,0.2533333333,6.333333333,-6.333333333,35,1.4,8977,1022,8984,1015,0.25,37.5,25,0.4,10,4,0,1,-1.916666667,29.2368679,,,,,,,28.66666667,0,0,0,71,45.5,55.5,0,0,0,0,,,821.7777778,821.7777778,821.7777778,1792.111111,283.3611111,720.0277778,821.7777778,821.7777778,821.7777778,821.7777778
1,4,3,3,3.875,31.5,0,0,0,1,2,0,0,1,0,0,0.2933333333,7.333333333,-7.333333333,41,1.64,8987,1012,8984,1015,0.125,37.5,25,0.64,16,4,0,1,-1.5625,36.02028749,,,,,,,33.66666667,0,0,0,35.5,91,0,0,75.5,0,0,,,1133.444444,1133.444444,1133.444444,3.361111111,3287.111111,1133.444444,1133.444444,1750.027778,1133.444444,1133.444444
1,4,3,4,3.625,20.25,0,0,1,1,0,0,1,0,1,0,0.3866666667,9.666666667,-9.666666667,45,1.8,8941,1058,8974,1025,0.375,37.5,25,0.8,20,4,0,1,-1.647058824,33.18751439,,,,,,,35.33333333,0,0,25.5,35.5,0,0,65.5,0,85.5,0,,,1248.444444,1248.444444,96.69444444,0.02777777778,1248.444444,1248.444444,910.0277778,1248.444444,2516.694444,1248.444444
1,5,3,1,3.75,20.875,1,1,1,1,0,0,0,0,0,0,0.09931506849,2.416666667,-2.416666667,16,0.6575342466,8989,1010,8991,1008,0.25,36.5,24.33333333,0.3424657534,8.333333333,4.333333333,0,1,0.4482758621,13.44148843,,,,,,,13.58333333,5,15.5,25.5,35.5,0,0,0,0,0,0,,,73.67361111,3.673611111,142.0069444,480.3402778,184.5069444,184.5069444,184.5069444,184.5069444,184.5069444,184.5069444
1,5,3,2,3.875,41.625,1,2,1,0,0,0,0,0,0,0,0.0102739726,0.25,0.25,10,0.4109589041,8991,1008,8987,1012,0.125,36.5,24.33333333,0.5890410959,14.33333333,4.333333333,0,1,0.7142857143,11.94204756,,,,,,,10.25,5,31,25.5,0,0,0,0,0,0,0,,,27.5625,430.5625,232.5625,105.0625,105.0625,105.0625,105.0625,105.0625,105.0625,105.0625
1,5,3,3,23.625,40.875,0,2,2,0,0,0,0,0,0,0,0.2602739726,6.333333333,-6.333333333,20,0.8219178082,8998,1001,8977,1022,0.375,36.5,24.33333333,0.1780821918,4.333333333,4.333333333,1,1,0.512195122,17.85621585,,,,,,,13.66666667,0,31,51,0,0,0,0,0,0,0,,,186.7777778,300.4444444,1393.777778,186.7777778,186.7777778,186.7777778,186.7777778,186.7777778,186.7777778,186.7777778
1,5,3,4,3.5,40.5,0,0,1,1,1,0,0,0,0,1,2.726027397,66.33333333,-66.33333333,100,4.109589041,8967,1032,8980,1019,0.5,36.5,24.33333333,3.109589041,75.66666667,4.333333333,0,1,-1.222222222,32.91521094,,,,,,,33.66666667,0,0,25.5,35.5,45.5,0,0,0,0,95.5,,,1133.444444,1133.444444,66.69444444,3.361111111,140.0277778,1133.444444,1133.444444,1133.444444,1133.444444,3823.361111
1,6,3,1,3.625,41.125,0,2,2,0,0,0,0,0,0,0,0.1666666667,1.333333333,-1.333333333,15,1.875,8991,1008,8988,1011,0.375,12,8,0.875,7,3,0,2,0.0625,17.85621585,,,,,,,13.66666667,0,31,51,0,0,0,0,0,0,0,,,186.7777778,300.4444444,1393.777778,186.7777778,186.7777778,186.7777778,186.7777778,186.7777778,186.7777778,186.7777778
1,6,3,2,13.875,51.375,0,3,1,0,0,0,0,0,0,0,0.125,1,1,11,1.375,8979,1020,8986,1013,0.125,12,8,0.375,3,3,1,2,-0.1,15.88867521,,,,,,,12,0,46.5,25.5,0,0,0,0,0,0,0,,,144,1190.25,182.25,144,144,144,144,144,144,144
1,6,3,3,3.75,21,0,2,1,1,0,0,0,0,0,0,0.2083333333,1.666666667,-1.666666667,17,2.125,8989,1010,8992,1007,0.25,12,8,1.125,9,3,0,2,0.15,15.49605685,,,,,,,15.33333333,0,31,25.5,35.5,0,0,0,0,0,0,,,235.1111111,245.4444444,103.3611111,406.6944444,235.1111111,235.1111111,235.1111111,235.1111111,235.1111111,235.1111111
1,6,3,4,13.5,30.5,1,1,2,0,0,0,0,0,0,0,0.8645833333,6.916666667,6.916666667,5,0.625,8999,1000,8975,1024,0.5,12,8,0.375,3,3,1,2,0.95,16.06933761,,,,,,,11.91666667,5,15.5,51,0,0,0,0,0,0,0,,,47.84027778,12.84027778,1527.506944,142.0069444,142.0069444,142.0069444,142.0069444,142.0069444,142.0069444,142.0069444
1,1,4,1,3.625,45.25,0,2,1,0,1,0,0,0,0,0,0,0,0,17,1.7,8995,1004,8982,1017,0.375,15,10,0.7,7,2,0,1,-0.1333333333,17.61675339,,,,,,,17,0,31,25.5,0,45.5,0,0,0,0,0,,,289,196,72.25,289,812.25,289,289,289,289,289
1,1,4,2,23.625,44.125,0,2,1,1,0,0,0,0,0,0,0.3333333333,3.333333333,3.333333333,12,1.2,8996,1003,8946,1053,0.375,15,10,0.2,2,2,1,1,-0.09090909091,15.49605685,,,,,,,15.33333333,0,31,25.5,35.5,0,0,0,0,0,0,,,235.1111111,245.4444444,103.3611111,406.6944444,235.1111111,235.1111111,235.1111111,235.1111111,235.1111111,235.1111111
1,1,4,3,3.125,23.625,0,1,2,1,0,0,0,0,0,0,0.1,1,-1,18,1.8,8994,1005,8970,1029,0.875,15,10,0.8,8,2,0,1,-0.05882352941,18.77098825,,,,,,,17,0,15.5,51,35.5,0,0,0,0,0,0,,,289,2.25,1156,342.25,289,289,289,289,289,289
1,1,4,4,3.625,65.125,0,2,1,0,1,0,0,0,0,0,0.4,4,4,13,1.3,8976,1023,8967,1032,0.375,15,10,0.3,3,2,0,1,-1.6,17.61675339,,,,,,,17,0,31,25.5,0,45.5,0,0,0,0,0,,,289,196,72.25,289,812.25,289,289,289,289,289
1,2,4,1,3.375,24.375,0,1,2,1,0,0,0,0,0,0,0.3333333333,3,-3,20,2.222222222,8999,1000,8987,1012,0.625,13.5,9,1.222222222,11,1,0,1,-0.1764705882,18.77098825,,,,,,,17,0,15.5,51,35.5,0,0,0,0,0,0,,,289,2.25,1156,342.25,289,289,289,289,289,289
1,2,4,2,3.875,44.875,0,3,1,0,0,0,0,0,0,0,0.1111111111,1,1,11,1.222222222,8987,1012,8977,1022,0.125,13.5,9,0.2222222222,2,1,0,1,0.08333333333,15.88867521,,,,,,,12,0,46.5,25.5,0,0,0,0,0,0,0,,,144,1190.25,182.25,144,144,144,144,144,144,144
1,2,4,3,23.625,44.375,2,1,1,0,0,0,0,0,0,0,0.1666666667,1.5,-1.5,10,1.111111111,8991,1008,8995,1004,0.375,13.5,9,0.1111111111,1,1,1,1,0.4444444444,9.19782583,,,,,,,8.5,10,15.5,25.5,0,0,0,0,0,0,0,,,2.25,49,289,72.25,72.25,72.25,72.25,72.25,72.25,72.25
1,2,4,4,3.625,64.875,0,2,2,0,0,0,0,0,0,0,0.07407407407,0.6666666667,0.6666666667,13,1.444444444,8998,1001,8988,1011,0.375,13.5,9,0.4444444444,4,1,0,1,0,17.85621585,,,,,,,13.66666667,0,31,51,0,0,0,0,0,0,0,,,186.7777778,300.4444444,1393.777778,186.7777778,186.7777778,186.7777778,186.7777778,186.7777778,186.7777778,186.7777778
1,3,4,1,23.875,43,2,2,0,0,0,0,0,0,0,0,0.02564102564,0.1666666667,-0.1666666667,7,1.076923077,8986,1013,8992,1007,0.125,9.75,6.5,0.07692307692,0.5,0.5,1,1,0.65,9.83672258,,,,,,,6.833333333,10,31,0,0,0,0,0,0,0,0,,,10.02777778,584.0277778,46.69444444,46.69444444,46.69444444,46.69444444,46.69444444,46.69444444,46.69444444,46.69444444
1,3,4,2,3.5,44.75,1,3,0,0,0,0,0,0,0,0,0.2179487179,1.416666667,-1.416666667,10,1.538461538,8989,1010,8991,1008,0.5,9.75,6.5,0.5384615385,3.5,0.5,0,1,0.09090909091,14.28251651,,,,,,,8.583333333,5,46.5,0,0,0,0,0,0,0,0,,,12.84027778,1437.673611,73.67361111,73.67361111,73.67361111,73.67361111,73.67361111,73.67361111,73.67361111,73.67361111
1,3,4,3,3.875,45.125,4,0,0,0,0,0,0,0,0,0,0.7179487179,4.666666667,-4.666666667,8,1.230769231,8992,1007,8985,1014,0.125,9.75,6.5,0.2307692308,1.5,0.5,0,1,0.2,6.146362972,,,,,,,3.333333333,20,0,0,0,0,0,0,0,0,0,,,277.7777778,11.11111111,11.11111111,11.11111111,11.11111111,11.11111111,11.11111111,11.11111111,11.11111111,11.11111111
1,3,4,4,3.125,44.125,0,3,1,0,0,0,0,0,0,0,0.3076923077,2,-2,14,2.153846154,8992,1007,8994,1005,0.875,9.75,6.5,1.153846154,7.5,0.5,0,1,-0.07692307692,15.88867521,,,,,,,12,0,46.5,25.5,0,0,0,0,0,0,0,,,144,1190.25,182.25,144,144,144,144,144,144,144
1,4,4,1,3.75,65,0,0,1,2,1,0,0,0,0,0,0.09345794393,1.666666667,1.666666667,22,1.23364486,8994,1005,8990,1009,0.25,26.75,17.83333333,0.2336448598,4.166666667,2.166666667,0,1,-2.142857143,25.7706767,,,,,,,23.66666667,0,0,25.5,71,45.5,0,0,0,0,0,,,560.1111111,560.1111111,3.361111111,2240.444444,476.6944444,560.1111111,560.1111111,560.1111111,560.1111111,560.1111111
1,4,4,2,24,55.25,0,1,2,1,0,0,0,0,0,0,0.1682242991,3,-3,20,1.121495327,8984,1015,8977,1022,0,26.75,17.83333333,0.1214953271,2.166666667,2.166666667,1,1,-1,18.77098825,,,,,,,17,0,15.5,51,35.5,0,0,0,0,0,0,,,289,2.25,1156,342.25,289,289,289,289,289,289
1,4,4,3,3.75,35.25,0,0,1,2,1,0,0,0,0,0,0.6355140187,11.33333333,-11.33333333,35,1.962616822,8982,1017,8976,1023,0.25,26.75,17.83333333,0.9626168224,17.16666667,2.166666667,0,1,-3.375,25.7706767,,,,,,,23.66666667,0,0,25.5,71,45.5,0,0,0,0,0,,,560.1111111,560.1111111,3.361111111,2240.444444,476.6944444,560.1111111,560.1111111,560.1111111,560.1111111,560.1111111
1,4,4,4,3.75,24,0,0,2,0,1,0,1,0,0,0,0.1682242991,3,-3,30,1.682242991,8963,1036,8981,1018,0.25,26.75,17.83333333,0.6822429907,12.16666667,2.166666667,0,1,-1.142857143,27.39251723,,,,,,,27,0,0,51,0,45.5,0,65.5,0,0,0,,,729,729,576,729,342.25,729,1482.25,729,729,729
1,5,4,1,3.875,24.75,1,1,1,1,0,0,0,0,0,0,1.323863636,19.41666667,-19.41666667,33,2.25,8992,1007,8991,1008,0.125,22,14.66666667,1.25,18.33333333,4.666666667,0,1,-0.5,13.44148843,,,,,,,13.58333333,5,15.5,25.5,35.5,0,0,0,0,0,0,,,73.67361111,3.673611111,142.0069444,480.3402778,184.5069444,184.5069444,184.5069444,184.5069444,184.5069444,184.5069444
1,5,4,2,23.625,65.25,1,2,1,0,0,0,0,0,0,0,0.01704545455,0.25,0.25,10,0.6818181818,8985,1014,8989,1010,0.375,22,14.66666667,0.3181818182,4.666666667,4.666666667,1,1,0.5,11.94204756,,,,,,,10.25,5,31,25.5,0,0,0,0,0,0,0,,,27.5625,430.5625,232.5625,105.0625,105.0625,105.0625,105.0625,105.0625,105.0625,105.0625
1,5,4,3,3.625,44.5,0,2,2,0,0,0,0,0,0,0,0.7045454545,10.33333333,-10.33333333,24,1.636363636,8992,1007,8990,1009,0.375,22,14.66666667,0.6363636364,9.333333333,4.666666667,0,1,0.3142857143,17.85621585,,,,,,,13.66666667,0,31,51,0,0,0,0,0,0,0,,,186.7777778,300.4444444,1393.777778,186.7777778,186.7777778,186.7777778,186.7777778,186.7777778,186.7777778,186.7777778
1,5,4,4,3.875,44.375,0,0,2,1,1,0,0,0,0,0,0.06818181818,1,1,21,1.431818182,8993,1006,8984,1015,0.125,22,14.66666667,0.4318181818,6.333333333,4.666666667,0,1,0.3,22.2789138,,,,,,,22,0,0,51,35.5,45.5,0,0,0,0,0,,,484,484,841,182.25,552.25,484,484,484,484,484
1,6,4,1,3.875,45,3,1,0,0,0,0,0,0,0,0,0.02631578947,0.08333333333,0.08333333333,5,1.578947368,8995,1004,8995,1004,0.125,4.75,3.166666667,0.5789473684,1.833333333,0.1666666667,0,1,0.8484848485,6.430936514,,,,,,,5.083333333,15,15.5,0,0,0,0,0,0,0,0,,,98.34027778,108.5069444,25.84027778,25.84027778,25.84027778,25.84027778,25.84027778,25.84027778,25.84027778,25.84027778
1,6,4,2,3.875,55.25,3,1,0,0,0,0,0,0,0,0,0.2894736842,0.9166666667,-0.9166666667,6,1.894736842,8990,1009,8984,1015,0.125,4.75,3.166666667,0.8947368421,2.833333333,0.1666666667,0,1,0.4,6.430936514,,,,,,,5.083333333,15,15.5,0,0,0,0,0,0,0,0,,,98.34027778,108.5069444,25.84027778,25.84027778,25.84027778,25.84027778,25.84027778,25.84027778,25.84027778,25.84027778
1,6,4,3,23.5,44.5,2,2,0,0,0,0,0,0,0,0,1.210526316,3.833333333,3.833333333,3,0.9473684211,8993,1006,8984,1015,0.5,4.75,3.166666667,0.05263157895,0.1666666667,0.1666666667,1,1,0.875,9.83672258,,,,,,,6.833333333,10,31,0,0,0,0,0,0,0,0,,,10.02777778,584.0277778,46.69444444,46.69444444,46.69444444,46.69444444,46.69444444,46.69444444,46.69444444,46.69444444
1,6,4,4,3.5,34,2,2,0,0,0,0,0,0,0,0,0.5789473684,1.833333333,1.833333333,5,1.578947368,8992,1007,8990,1009,0.5,4.75,3.166666667,0.5789473684,1.833333333,0.1666666667,0,1,0.7619047619,9.83672258,,,,,,,6.833333333,10,31,0,0,0,0,0,0,0,0,,,10.02777778,584.0277778,46.69444444,46.69444444,46.69444444,46.69444444,46.69444444,46.69444444,46.69444444,46.69444444
1,1,5,1,3.875,49.125,2,2,0,0,0,0,0,0,0,0,0.1794871795,1.166666667,-1.166666667,8,1.230769231,8995,1004,8988,1011,0.125,9.75,6.5,0.2307692308,1.5,0.5,0,1,-0.6,9.83672258,,,,,,,6.833333333,10,31,0,0,0,0,0,0,0,0,,,10.02777778,584.0277778,46.69444444,46.69444444,46.69444444,46.69444444,46.69444444,46.69444444,46.69444444,46.69444444
1,1,5,2,4,48.125,3,1,0,0,0,0,0,0,0,0,0.7564102564,4.916666667,-4.916666667,10,1.538461538,8977,1022,8978,1021,0,9.75,6.5,0.5384615385,3.5,0.5,0,1,-0.6666666667,6.430936514,,,,,,,5.083333333,15,15.5,0,0,0,0,0,0,0,0,,,98.34027778,108.5069444,25.84027778,25.84027778,25.84027778,25.84027778,25.84027778,25.84027778,25.84027778,25.84027778
1,1,5,3,3.25,26.875,0,2,1,1,0,0,0,0,0,0,0.05128205128,0.3333333333,0.3333333333,15,2.307692308,8996,1003,8985,1014,0.75,9.75,6.5,1.307692308,8.5,0.5,0,1,-4,15.49605685,,,,,,,15.33333333,0,31,25.5,35.5,0,0,0,0,0,0,,,235.1111111,245.4444444,103.3611111,406.6944444,235.1111111,235.1111111,235.1111111,235.1111111,235.1111111,235.1111111
1,1,5,4,24,89.125,3,1,0,0,0,0,0,0,0,0,0.141025641,0.9166666667,-0.9166666667,6,0.9230769231,8988,1011,8981,1018,0,9.75,6.5,0.07692307692,0.5,0.5,1,1,-0.2,6.430936514,,,,,,,5.083333333,15,15.5,0,0,0,0,0,0,0,0,,,98.34027778,108.5069444,25.84027778,25.84027778,25.84027778,25.84027778,25.84027778,25.84027778,25.84027778,25.84027778
1,2,5,1,3.875,28.25,1,2,1,0,0,0,0,0,0,0,0.3387096774,1.75,-1.75,12,2.322580645,8997,1002,8992,1007,0.125,7.75,5.166666667,1.322580645,6.833333333,0.1666666667,0,1,-0.5,11.94204756,,,,,,,10.25,5,31,25.5,0,0,0,0,0,0,0,,,27.5625,430.5625,232.5625,105.0625,105.0625,105.0625,105.0625,105.0625,105.0625,105.0625
1,2,5,2,3.5,48.375,4,0,0,0,0,0,0,0,0,0,0.2580645161,1.333333333,1.333333333,2,0.3870967742,8985,1014,8988,1011,0.5,7.75,5.166666667,0.6129032258,3.166666667,0.1666666667,0,1,0.8,6.146362972,,,,,,,3.333333333,20,0,0,0,0,0,0,0,0,0,,,277.7777778,11.11111111,11.11111111,11.11111111,11.11111111,11.11111111,11.11111111,11.11111111,11.11111111,11.11111111
1,2,5,3,3.875,48.25,1,3,0,0,0,0,0,0,0,0,0.6612903226,3.416666667,-3.416666667,12,2.322580645,8997,1002,8988,1011,0.125,7.75,5.166666667,1.322580645,6.833333333,0.1666666667,0,1,0.2,14.28251651,,,,,,,8.583333333,5,46.5,0,0,0,0,0,0,0,0,,,12.84027778,1437.673611,73.67361111,73.67361111,73.67361111,73.67361111,73.67361111,73.67361111,73.67361111,73.67361111
1,2,5,4,23.875,88.75,3,1,0,0,0,0,0,0,0,0,0.01612903226,0.08333333333,0.08333333333,5,0.9677419355,8981,1018,8992,1007,0.125,7.75,5.166666667,0.03225806452,0.1666666667,0.1666666667,1,1,0.1666666667,6.430936514,,,,,,,5.083333333,15,15.5,0,0,0,0,0,0,0,0,,,98.34027778,108.5069444,25.84027778,25.84027778,25.84027778,25.84027778,25.84027778,25.84027778,25.84027778,25.84027778
1,3,5,1,3.875,46.875,3,1,0,0,0,0,0,0,0,0,0.9210526316,2.916666667,-2.916666667,8,2.526315789,8982,1017,8992,1007,0.125,4.75,3.166666667,1.526315789,4.833333333,1.166666667,0,2,0.3333333333,6.430936514,,,,,,,5.083333333,15,15.5,0,0,0,0,0,0,0,0,,,98.34027778,108.5069444,25.84027778,25.84027778,25.84027778,25.84027778,25.84027778,25.84027778,25.84027778,25.84027778
1,3,5,2,14,58.75,4,0,0,0,0,0,0,0,0,0,0.4210526316,1.333333333,1.333333333,2,0.6315789474,8996,1003,8991,1008,0,4.75,3.166666667,0.3684210526,1.166666667,1.166666667,1,2,0,6.146362972,,,,,,,3.333333333,20,0,0,0,0,0,0,0,0,0,,,277.7777778,11.11111111,11.11111111,11.11111111,11.11111111,11.11111111,11.11111111,11.11111111,11.11111111,11.11111111
1,3,5,3,14,59.125,4,0,0,0,0,0,0,0,0,0,0.4210526316,1.333333333,1.333333333,2,0.6315789474,8991,1008,8993,1006,0,4.75,3.166666667,0.3684210526,1.166666667,1.166666667,1,2,0.8333333333,6.146362972,,,,,,,3.333333333,20,0,0,0,0,0,0,0,0,0,,,277.7777778,11.11111111,11.11111111,11.11111111,11.11111111,11.11111111,11.11111111,11.11111111,11.11111111,11.11111111
1,3,5,4,3.875,48,3,1,0,0,0,0,0,0,0,0,0.6052631579,1.916666667,-1.916666667,7,2.210526316,8999,1000,8995,1004,0.125,4.75,3.166666667,1.210526316,3.833333333,1.166666667,0,2,-0.4,6.430936514,,,,,,,5.083333333,15,15.5,0,0,0,0,0,0,0,0,,,98.34027778,108.5069444,25.84027778,25.84027778,25.84027778,25.84027778,25.84027778,25.84027778,25.84027778,25.84027778
1,4,5,1,3.5,68.5,0,2,2,0,0,0,0,0,0,0,0.06666666667,0.6666666667,0.6666666667,13,1.3,8999,1000,8984,1015,0.5,15,10,0.3,3,2,0,1,-0.625,17.85621585,,,,,,,13.66666667,0,31,51,0,0,0,0,0,0,0,,,186.7777778,300.4444444,1393.777778,186.7777778,186.7777778,186.7777778,186.7777778,186.7777778,186.7777778,186.7777778
1,4,5,2,23.625,78.875,0,2,1,1,0,0,0,0,0,0,0.3333333333,3.333333333,3.333333333,12,1.2,8993,1006,8984,1015,0.375,15,10,0.2,2,2,1,1,-5,15.49605685,,,,,,,15.33333333,0,31,25.5,35.5,0,0,0,0,0,0,,,235.1111111,245.4444444,103.3611111,406.6944444,235.1111111,235.1111111,235.1111111,235.1111111,235.1111111,235.1111111
1,4,5,3,3.625,38.875,1,2,1,0,0,0,0,0,0,0,0.475,4.75,-4.75,15,1.5,8999,1000,8986,1013,0.375,15,10,0.5,5,2,0,1,-6.5,11.94204756,,,,,,,10.25,5,31,25.5,0,0,0,0,0,0,0,,,27.5625,430.5625,232.5625,105.0625,105.0625,105.0625,105.0625,105.0625,105.0625,105.0625
1,4,5,4,2.625,26.625,0,0,2,1,1,0,0,0,0,0,0.2,2,2,20,2,8985,1014,8985,1014,1.375,15,10,1,10,2,0,1,-1.857142857,22.2789138,,,,,,,22,0,0,51,35.5,45.5,0,0,0,0,0,,,484,484,841,182.25,552.25,484,484,484,484,484
1,5,5,1,3.625,28.375,1,1,2,0,0,0,0,0,0,0,0.7604166667,6.083333333,-6.083333333,18,2.25,8990,1009,8990,1009,0.375,12,8,1.25,10,0,0,1,-0.3846153846,16.06933761,,,,,,,11.91666667,5,15.5,51,0,0,0,0,0,0,0,,,47.84027778,12.84027778,1527.506944,142.0069444,142.0069444,142.0069444,142.0069444,142.0069444,142.0069444,142.0069444
1,5,5,2,23.875,89.125,1,2,1,0,0,0,0,0,0,0,0.28125,2.25,2.25,8,1,8993,1006,8990,1009,0.125,12,8,0,0,0,1,1,0.3333333333,11.94204756,,,,,,,10.25,5,31,25.5,0,0,0,0,0,0,0,,,27.5625,430.5625,232.5625,105.0625,105.0625,105.0625,105.0625,105.0625,105.0625,105.0625
1,5,5,3,4,48.5,2,2,0,0,0,0,0,0,0,0,0.3958333333,3.166666667,-3.166666667,10,1.25,8997,1002,8986,1013,0,12,8,0.25,2,0,0,1,0.3333333333,9.83672258,,,,,,,6.833333333,10,31,0,0,0,0,0,0,0,0,,,10.02777778,584.0277778,46.69444444,46.69444444,46.69444444,46.69444444,46.69444444,46.69444444,46.69444444,46.69444444
1,5,5,4,3.375,47.75,0,1,2,1,0,0,0,0,0,0,0.625,5,5,12,1.5,8990,1009,8987,1012,0.625,12,8,0.5,4,0,0,1,0.4,18.77098825,,,,,,,17,0,15.5,51,35.5,0,0,0,0,0,0,,,289,2.25,1156,342.25,289,289,289,289,289,289
1,6,5,1,4,49,4,0,0,0,0,0,0,0,0,0,1.333333333,1.333333333,1.333333333,2,2,8995,1004,8994,1005,0,1.5,1,1,1,0,0,2,0.8888888889,6.146362972,,,,,,,3.333333333,20,0,0,0,0,0,0,0,0,0,,,277.7777778,11.11111111,11.11111111,11.11111111,11.11111111,11.11111111,11.11111111,11.11111111,11.11111111,11.11111111
1,6,5,2,4,59.25,4,0,0,0,0,0,0,0,0,0,1.333333333,1.333333333,1.333333333,2,2,8998,1001,8995,1004,0,1.5,1,1,1,0,0,2,0.75,6.146362972,,,,,,,3.333333333,20,0,0,0,0,0,0,0,0,0,,,277.7777778,11.11111111,11.11111111,11.11111111,11.11111111,11.11111111,11.11111111,11.11111111,11.11111111,11.11111111
1,6,5,3,14,58.5,4,0,0,0,0,0,0,0,0,0,2.333333333,2.333333333,2.333333333,1,1,8997,1002,8993,1006,0,1.5,1,0,0,0,1,2,0.9,6.146362972,,,,,,,3.333333333,20,0,0,0,0,0,0,0,0,0,,,277.7777778,11.11111111,11.11111111,11.11111111,11.11111111,11.11111111,11.11111111,11.11111111,11.11111111,11.11111111
1,6,5,4,14,48,4,0,0,0,0,0,0,0,0,0,2.333333333,2.333333333,2.333333333,1,1,8991,1008,8990,1009,0,1.5,1,0,0,0,1,2,0.9166666667,6.146362972,,,,,,,3.333333333,20,0,0,0,0,0,0,0,0,0,,,277.7777778,11.11111111,11.11111111,11.11111111,11.11111111,11.11111111,11.11111111,11.11111111,11.11111111,11.11111111
2,1,1,1,23.75,33.75,0,1,2,1,0,0,0,0,0,0,0.4655172414,9,-9,26,1.344827586,8950,1049,8962,1037,0.25,29,19.33333333,0.3448275862,6.666666667,6.666666667,1,1,,18.77098825,,,,,,,17,0,15.5,51,35.5,0,0,0,0,0,0,,,289,2.25,1156,342.25,289,289,289,289,289,289
2,1,1,2,3.75,13.75,0,0,2,1,1,0,0,0,0,0,0.4137931034,8,-8,30,1.551724138,8721,1278,8949,1050,0.25,29,19.33333333,0.5517241379,10.66666667,6.666666667,0,1,,22.2789138,,,,,,,22,0,0,51,35.5,45.5,0,0,0,0,0,,,484,484,841,182.25,552.25,484,484,484,484,484
2,1,1,3,3.5,13.5,0,0,0,0,1,2,1,0,0,0,1.189655172,23,-23,60,3.103448276,8863,1136,8952,1047,0.5,29,19.33333333,2.103448276,40.66666667,6.666666667,0,1,,39.92931254,,,,,,,37,0,0,0,0,45.5,111,65.5,0,0,0,,,1369,1369,1369,1369,72.25,5476,812.25,1369,1369,1369
2,1,1,4,3.375,13.375,0,0,0,0,2,2,0,0,0,0,1.74137931,33.66666667,33.66666667,0,0,8973,1026,8949,1050,0.625,29,19.33333333,1,19.33333333,6.666666667,0,1,,42.81951788,,,,,,,33.66666667,0,0,0,0,91,111,0,0,0,0,,,1133.444444,1133.444444,1133.444444,1133.444444,3287.111111,5980.444444,1133.444444,1133.444444,1133.444444,1133.444444
2,2,1,1,23.875,33.875,0,0,1,0,1,1,0,1,0,0,0.1151832461,3.666666667,3.666666667,30,0.942408377,8665,1334,8857,1142,0.125,47.75,31.83333333,0.05759162304,1.833333333,1.833333333,1,1,-0.1538461538,30.38768025,,,,,,,33.66666667,0,0,25.5,0,45.5,55.5,0,75.5,0,0,,,1133.444444,1133.444444,66.69444444,1133.444444,140.0277778,476.6944444,1133.444444,1750.027778,1133.444444,1133.444444
2,2,1,2,3.75,13.75,0,0,1,0,0,1,1,1,0,0,0.4397905759,14,-14,51,1.602094241,8891,1108,8900,1099,0.25,47.75,31.83333333,0.6020942408,19.16666667,1.833333333,0,1,-0.7,33.14060953,,,,,,,37,0,0,25.5,0,0,55.5,65.5,75.5,0,0,,,1369,1369,132.25,1369,1369,342.25,812.25,1482.25,1369,1369
2,2,1,3,3.875,13.875,0,0,0,0,1,2,1,0,0,0,0.722513089,23,-23,60,1.884816754,8976,1023,8939,1060,0.125,47.75,31.83333333,0.8848167539,28.16666667,1.833333333,0,1,0,39.92931254,,,,,,,37,0,0,0,0,45.5,111,65.5,0,0,0,,,1369,1369,1369,1369,72.25,5476,812.25,1369,1369,1369
2,2,1,4,3.875,13.875,0,0,0,0,1,2,1,0,0,0,0.4083769634,13,-13,50,1.570680628,8958,1041,8963,1036,0.125,47.75,31.83333333,0.5706806283,18.16666667,1.833333333,0,1,#DIV/0!,39.92931254,,,,,,,37,0,0,0,0,45.5,111,65.5,0,0,0,,,1369,1369,1369,1369,72.25,5476,812.25,1369,1369,1369
2,3,1,1,3.75,13.75,1,0,0,0,1,1,1,0,0,0,1.402542373,27.58333333,27.58333333,1,0.05084745763,8914,1085,8786,1213,0.25,29.5,19.66666667,0.9491525424,18.66666667,5.333333333,0,1,0.9666666667,27.98523916,,,,,,,28.58333333,5,0,0,0,45.5,55.5,65.5,0,0,0,,,556.1736111,817.0069444,817.0069444,817.0069444,286.1736111,724.5069444,1362.840278,817.0069444,817.0069444,817.0069444
2,3,1,2,23.75,33.75,0,1,0,1,2,0,0,0,0,0,0.06779661017,1.333333333,-1.333333333,25,1.271186441,8897,1102,8965,1034,0.25,29.5,19.66666667,0.2711864407,5.333333333,5.333333333,1,1,0.5098039216,29.43004889,,,,,,,23.66666667,0,15.5,0,35.5,91,0,0,0,0,0,,,560.1111111,66.69444444,560.1111111,140.0277778,4533.777778,560.1111111,560.1111111,560.1111111,560.1111111,560.1111111
2,3,1,3,3.875,13.875,1,0,0,0,2,0,0,0,0,1,0.9194915254,18.08333333,-18.08333333,50,2.542372881,8903,1096,8854,1145,0.125,29.5,19.66666667,1.542372881,30.33333333,5.333333333,0,1,0.1666666667,39.22869202,,,,,,,31.91666667,5,0,0,0,91,0,0,0,0,95.5,,,724.5069444,1018.673611,1018.673611,1018.673611,3490.840278,1018.673611,1018.673611,1018.673611,1018.673611,4042.840278
2,3,1,4,3.625,13.625,0,0,0,0,2,2,0,0,0,0,0.4237288136,8.333333333,-8.333333333,42,2.13559322,8934,1065,8893,1106,0.375,29.5,19.66666667,1.13559322,22.33333333,5.333333333,0,1,0.16,42.81951788,,,,,,,33.66666667,0,0,0,0,91,111,0,0,0,0,,,1133.444444,1133.444444,1133.444444,1133.444444,3287.111111,5980.444444,1133.444444,1133.444444,1133.444444,1133.444444
2,4,1,1,3.625,13.625,0,0,0,2,1,1,0,0,0,0,0.3015873016,6.333333333,-6.333333333,35,1.666666667,8920,1079,8962,1037,0.375,31.5,21,0.6666666667,14,1,0,1,-34,29.2368679,,,,,,,28.66666667,0,0,0,71,45.5,55.5,0,0,0,0,,,821.7777778,821.7777778,821.7777778,1792.111111,283.3611111,720.0277778,821.7777778,821.7777778,821.7777778,821.7777778
2,4,1,2,23.625,33.625,0,1,2,1,0,0,0,0,0,0,0.1428571429,3,-3,20,0.9523809524,8962,1037,8956,1043,0.375,31.5,21,0.04761904762,1,1,1,1,0.2,18.77098825,,,,,,,17,0,15.5,51,35.5,0,0,0,0,0,0,,,289,2.25,1156,342.25,289,289,289,289,289,289
2,4,1,3,3.625,13.625,3,1,0,0,0,0,0,0,0,0,0.003968253968,0.08333333333,0.08333333333,5,0.2380952381,8940,1059,8939,1060,0.375,31.5,21,0.7619047619,16,1,0,1,0.9,6.430936514,,,,,,,5.083333333,15,15.5,0,0,0,0,0,0,0,0,,,98.34027778,108.5069444,25.84027778,25.84027778,25.84027778,25.84027778,25.84027778,25.84027778,25.84027778,25.84027778
2,4,1,4,3.75,13.75,0,0,0,1,1,0,1,0,1,0,1.301587302,27.33333333,-27.33333333,66,3.142857143,8987,1012,8963,1036,0.25,31.5,21,2.142857143,45,1,0,1,-0.5714285714,34.55543051,,,,,,,38.66666667,0,0,0,35.5,45.5,0,65.5,0,85.5,0,,,1495.111111,1495.111111,1495.111111,10.02777778,46.69444444,1495.111111,720.0277778,1495.111111,2193.361111,1495.111111
2,5,1,1,3.75,13.75,0,0,0,1,1,1,1,0,0,0,0.7259259259,16.33333333,-16.33333333,50,2.222222222,8919,1080,8936,1063,0.25,33.75,22.5,1.222222222,27.5,2.5,0,2,-0.4285714286,29.04154113,,,,,,,33.66666667,0,0,0,35.5,45.5,55.5,65.5,0,0,0,,,1133.444444,1133.444444,1133.444444,3.361111111,140.0277778,476.6944444,1013.361111,1133.444444,1133.444444,1133.444444
2,5,1,2,3.75,13.75,0,0,0,1,1,1,1,0,0,0,0.2814814815,6.333333333,-6.333333333,40,1.777777778,8933,1066,8949,1050,0.25,33.75,22.5,0.7777777778,17.5,2.5,0,2,-1,29.04154113,,,,,,,33.66666667,0,0,0,35.5,45.5,55.5,65.5,0,0,0,,,1133.444444,1133.444444,1133.444444,3.361111111,140.0277778,476.6944444,1013.361111,1133.444444,1133.444444,1133.444444
2,5,1,3,13.875,23.875,0,1,2,1,0,0,0,0,0,0,0.1333333333,3,-3,20,0.8888888889,8972,1027,8988,1011,0.125,33.75,22.5,0.1111111111,2.5,2.5,1,2,-3,18.77098825,,,,,,,17,0,15.5,51,35.5,0,0,0,0,0,0,,,289,2.25,1156,342.25,289,289,289,289,289,289
2,5,1,4,13.75,23.75,0,0,2,2,0,0,0,0,0,0,0.2074074074,4.666666667,-4.666666667,25,1.111111111,8886,1113,8944,1055,0.25,33.75,22.5,0.1111111111,2.5,2.5,1,2,0.6212121212,26.10576777,,,,,,,20.33333333,0,0,51,71,0,0,0,0,0,0,,,413.4444444,413.4444444,940.4444444,2567.111111,413.4444444,413.4444444,413.4444444,413.4444444,413.4444444,413.4444444
2,6,1,1,3.625,13.625,0,0,0,0,0,1,0,0,2,1,1.406451613,36.33333333,-36.33333333,90,3.483870968,8966,1033,8856,1143,0.375,38.75,25.83333333,2.483870968,64.16666667,5.833333333,0,1,-0.8,59.73380766,,,,,,,53.66666667,0,0,0,0,0,55.5,0,0,171,95.5,,,2880.111111,2880.111111,2880.111111,2880.111111,2880.111111,3.361111111,2880.111111,2880.111111,13767.11111,1750.027778
2,6,1,2,3.625,13.625,1,3,0,0,0,0,0,0,0,0,0.05483870968,1.416666667,-1.416666667,10,0.3870967742,8901,1098,8979,1020,0.375,38.75,25.83333333,0.6129032258,15.83333333,5.833333333,0,1,0.75,14.28251651,,,,,,,8.583333333,5,46.5,0,0,0,0,0,0,0,0,,,12.84027778,1437.673611,73.67361111,73.67361111,73.67361111,73.67361111,73.67361111,73.67361111,73.67361111,73.67361111
2,6,1,3,23.5,33.5,0,2,2,0,0,0,0,0,0,0,0.2451612903,6.333333333,-6.333333333,20,0.7741935484,8775,1224,8925,1074,0.5,38.75,25.83333333,0.2258064516,5.833333333,5.833333333,1,1,0,17.85621585,,,,,,,13.66666667,0,31,51,0,0,0,0,0,0,0,,,186.7777778,300.4444444,1393.777778,186.7777778,186.7777778,186.7777778,186.7777778,186.7777778,186.7777778,186.7777778
2,6,1,4,3.625,13.625,0,0,1,1,1,1,0,0,0,0,0.3096774194,8,-8,35,1.35483871,8931,1068,8896,1103,0.375,38.75,25.83333333,0.3548387097,9.166666667,5.833333333,0,1,-0.4,23.67065694,,,,,,,27,0,0,25.5,35.5,45.5,55.5,0,0,0,0,,,729,729,2.25,72.25,342.25,812.25,729,729,729,729
2,1,2,1,14,47.75,0,2,1,1,0,0,0,0,0,0,0.28,4.666666667,-4.666666667,20,1.2,8931,1068,8953,1046,0,25,16.66666667,0.2,3.333333333,3.333333333,1,2,0.7777777778,15.49605685,,,,,,,15.33333333,0,31,25.5,35.5,0,0,0,0,0,0,,,235.1111111,245.4444444,103.3611111,406.6944444,235.1111111,235.1111111,235.1111111,235.1111111,235.1111111,235.1111111
2,1,2,2,3.875,17.625,0,1,2,1,0,0,0,0,0,0,0.48,8,-8,25,1.5,8978,1021,8893,1106,0.125,25,16.66666667,0.5,8.333333333,3.333333333,0,2,-1.5,18.77098825,,,,,,,17,0,15.5,51,35.5,0,0,0,0,0,0,,,289,2.25,1156,342.25,289,289,289,289,289,289
2,1,2,3,3.625,17.125,0,0,1,2,1,0,0,0,0,0,0.68,11.33333333,-11.33333333,35,2.1,8945,1054,8942,1057,0.375,25,16.66666667,1.1,18.33333333,3.333333333,0,2,-0.75,25.7706767,,,,,,,23.66666667,0,0,25.5,71,45.5,0,0,0,0,0,,,560.1111111,560.1111111,3.361111111,2240.444444,476.6944444,560.1111111,560.1111111,560.1111111,560.1111111,560.1111111
2,1,2,4,13.125,26.5,2,0,0,0,0,0,0,0,0,2,0.81,13.5,13.5,20,1.2,8984,1015,8974,1025,0.875,25,16.66666667,0.2,3.333333333,3.333333333,1,2,0.4285714286,58.59735489,,,,,,,33.5,10,0,0,0,0,0,0,0,0,191,,,552.25,1122.25,1122.25,1122.25,1122.25,1122.25,1122.25,1122.25,1122.25,24806.25
2,2,2,1,23.875,57.75,0,1,2,1,0,0,0,0,0,0,0.05084745763,1,-1,18,0.9152542373,8822,1177,8968,1031,0.125,29.5,19.66666667,0.08474576271,1.666666667,1.666666667,1,1,0.1,18.77098825,,,,,,,17,0,15.5,51,35.5,0,0,0,0,0,0,,,289,2.25,1156,342.25,289,289,289,289,289,289
2,2,2,2,3.625,17.375,0,0,2,2,0,0,0,0,0,0,0.4915254237,9.666666667,-9.666666667,30,1.525423729,8876,1123,8925,1074,0.375,29.5,19.66666667,0.5254237288,10.33333333,1.666666667,0,1,-0.2,26.10576777,,,,,,,20.33333333,0,0,51,71,0,0,0,0,0,0,,,413.4444444,413.4444444,940.4444444,2567.111111,413.4444444,413.4444444,413.4444444,413.4444444,413.4444444,413.4444444
2,2,2,3,3.5,17.375,0,0,0,1,2,1,0,0,0,0,0.7457627119,14.66666667,-14.66666667,45,2.288135593,8947,1052,8949,1050,0.5,29.5,19.66666667,1.288135593,25.33333333,1.666666667,0,1,-0.2857142857,32.83485614,,,,,,,30.33333333,0,0,0,35.5,91,55.5,0,0,0,0,,,920.1111111,920.1111111,920.1111111,26.69444444,3680.444444,633.3611111,920.1111111,920.1111111,920.1111111,920.1111111
2,2,2,4,3.625,17.5,0,0,2,2,0,0,0,0,0,0,0.2372881356,4.666666667,-4.666666667,25,1.271186441,8952,1047,8985,1014,0.375,29.5,19.66666667,0.2711864407,5.333333333,1.666666667,0,1,-0.25,26.10576777,,,,,,,20.33333333,0,0,51,71,0,0,0,0,0,0,,,413.4444444,413.4444444,940.4444444,2567.111111,413.4444444,413.4444444,413.4444444,413.4444444,413.4444444,413.4444444
2,3,2,1,3.5,17.25,0,0,0,2,2,0,0,0,0,0,1.161290323,18,-18,45,2.903225806,8928,1071,8965,1034,0.5,23.25,15.5,1.903225806,29.5,3.5,0,1,-1.5,34.4441577,,,,,,,27,0,0,0,71,91,0,0,0,0,0,,,729,729,729,1936,4096,729,729,729,729,729
2,3,2,2,23.75,57.5,2,2,0,0,0,0,0,0,0,0,0.3333333333,5.166666667,-5.166666667,12,0.7741935484,8968,1031,8956,1043,0.25,23.25,15.5,0.2258064516,3.5,3.5,1,1,0.6,9.83672258,,,,,,,6.833333333,10,31,0,0,0,0,0,0,0,0,,,10.02777778,584.0277778,46.69444444,46.69444444,46.69444444,46.69444444,46.69444444,46.69444444,46.69444444,46.69444444
2,3,2,3,3.875,17.75,2,1,1,0,0,0,0,0,0,0,0.09677419355,1.5,-1.5,10,0.6451612903,8986,1013,8953,1046,0.125,23.25,15.5,0.3548387097,5.5,3.5,0,1,0.7777777778,9.19782583,,,,,,,8.5,10,15.5,25.5,0,0,0,0,0,0,0,,,2.25,49,289,72.25,72.25,72.25,72.25,72.25,72.25,72.25
2,3,2,4,3.75,17.375,1,0,2,0,0,1,0,0,0,0,0.4784946237,7.416666667,-7.416666667,26,1.677419355,8974,1025,8963,1036,0.25,23.25,15.5,0.6774193548,10.5,3.5,0,1,-0.04,22.39546705,,,,,,,18.58333333,5,0,51,0,0,55.5,0,0,0,0,,,184.5069444,345.3402778,1050.840278,345.3402778,345.3402778,1362.840278,345.3402778,345.3402778,345.3402778,345.3402778
2,4,2,1,3.875,17.5,2,2,0,0,0,0,0,0,0,0,0.3780487805,5.166666667,-5.166666667,12,0.8780487805,8981,1018,8980,1019,0.125,20.5,13.66666667,0.1219512195,1.666666667,1.333333333,0,1,0.7333333333,9.83672258,,,,,,,6.833333333,10,31,0,0,0,0,0,0,0,0,,,10.02777778,584.0277778,46.69444444,46.69444444,46.69444444,46.69444444,46.69444444,46.69444444,46.69444444,46.69444444
2,4,2,2,23.75,57.375,0,3,1,0,0,0,0,0,0,0,0.2195121951,3,-3,15,1.097560976,8977,1022,8977,1022,0.25,20.5,13.66666667,0.09756097561,1.333333333,1.333333333,1,1,-0.25,15.88867521,,,,,,,12,0,46.5,25.5,0,0,0,0,0,0,0,,,144,1190.25,182.25,144,144,144,144,144,144,144
2,4,2,3,3.875,17.5,2,2,0,0,0,0,0,0,0,0,0.2317073171,3.166666667,-3.166666667,10,0.7317073171,8975,1024,8971,1028,0.125,20.5,13.66666667,0.2682926829,3.666666667,1.333333333,0,1,0,9.83672258,,,,,,,6.833333333,10,31,0,0,0,0,0,0,0,0,,,10.02777778,584.0277778,46.69444444,46.69444444,46.69444444,46.69444444,46.69444444,46.69444444,46.69444444,46.69444444
2,4,2,4,3.5,17.25,0,0,1,1,1,0,0,1,0,0,1.073170732,14.66666667,-14.66666667,45,3.292682927,8997,1002,8984,1015,0.5,20.5,13.66666667,2.292682927,31.33333333,1.333333333,0,1,-0.7307692308,28.00138885,,,,,,,30.33333333,0,0,25.5,35.5,45.5,0,0,75.5,0,0,,,920.1111111,920.1111111,23.36111111,26.69444444,230.0277778,920.1111111,920.1111111,2040.027778,920.1111111,920.1111111
2,5,2,1,3.625,17.375,0,1,1,2,0,0,0,0,0,0,1.012658228,13.33333333,-13.33333333,32,2.430379747,8977,1022,8942,1057,0.375,19.75,13.16666667,1.430379747,18.83333333,2.166666667,0,1,-1.666666667,22.87927252,,,,,,,18.66666667,0,15.5,25.5,71,0,0,0,0,0,0,,,348.4444444,10.02777778,46.69444444,2738.777778,348.4444444,348.4444444,348.4444444,348.4444444,348.4444444,348.4444444
2,5,2,2,3.625,17.375,0,2,2,0,0,0,0,0,0,0,0.3291139241,4.333333333,-4.333333333,18,1.367088608,8991,1008,8980,1019,0.375,19.75,13.16666667,0.3670886076,4.833333333,2.166666667,0,1,-0.2,17.85621585,,,,,,,13.66666667,0,31,51,0,0,0,0,0,0,0,,,186.7777778,300.4444444,1393.777778,186.7777778,186.7777778,186.7777778,186.7777778,186.7777778,186.7777778,186.7777778
2,5,2,3,3.125,27,0,0,2,1,1,0,0,0,0,0,0.3037974684,4,4,18,1.367088608,8965,1034,8945,1054,0.875,19.75,13.16666667,0.3670886076,4.833333333,2.166666667,0,1,-0.8,22.2789138,,,,,,,22,0,0,51,35.5,45.5,0,0,0,0,0,,,484,484,841,182.25,552.25,484,484,484,484,484
2,5,2,4,23.875,47.625,1,3,0,0,0,0,0,0,0,0,0.1835443038,2.416666667,-2.416666667,11,0.835443038,8943,1056,8986,1013,0.125,19.75,13.16666667,0.164556962,2.166666667,2.166666667,1,1,0.7555555556,14.28251651,,,,,,,8.583333333,5,46.5,0,0,0,0,0,0,0,0,,,12.84027778,1437.673611,73.67361111,73.67361111,73.67361111,73.67361111,73.67361111,73.67361111,73.67361111,73.67361111
2,6,2,1,3.75,17.375,1,1,1,1,0,0,0,0,0,0,0.8012820513,10.41666667,-10.41666667,24,1.846153846,8950,1049,8967,1032,0.25,19.5,13,0.8461538462,11,2,0,1,0.25,13.44148843,,,,,,,13.58333333,5,15.5,25.5,35.5,0,0,0,0,0,0,,,73.67361111,3.673611111,142.0069444,480.3402778,184.5069444,184.5069444,184.5069444,184.5069444,184.5069444,184.5069444
2,6,2,2,23.875,37.5,0,1,3,0,0,0,0,0,0,0,0.02564102564,0.3333333333,0.3333333333,15,1.153846154,8992,1007,8984,1015,0.125,19.5,13,0.1538461538,2,2,1,1,0.1666666667,23.71134281,,,,,,,15.33333333,0,15.5,76.5,0,0,0,0,0,0,0,,,235.1111111,0.02777777778,3741.361111,235.1111111,235.1111111,235.1111111,235.1111111,235.1111111,235.1111111,235.1111111
2,6,2,3,3.75,37.25,1,1,1,1,0,0,0,0,0,0,0.6474358974,8.416666667,-8.416666667,22,1.692307692,8909,1090,8960,1039,0.25,19.5,13,0.6923076923,9,2,0,1,-0.2222222222,13.44148843,,,,,,,13.58333333,5,15.5,25.5,35.5,0,0,0,0,0,0,,,73.67361111,3.673611111,142.0069444,480.3402778,184.5069444,184.5069444,184.5069444,184.5069444,184.5069444,184.5069444
2,6,2,4,3.75,17.375,1,1,1,1,0,0,0,0,0,0,0.2628205128,3.416666667,-3.416666667,17,1.307692308,8956,1043,8968,1031,0.25,19.5,13,0.3076923077,4,2,0,1,-0.5454545455,13.44148843,,,,,,,13.58333333,5,15.5,25.5,35.5,0,0,0,0,0,0,,,73.67361111,3.673611111,142.0069444,480.3402778,184.5069444,184.5069444,184.5069444,184.5069444,184.5069444,184.5069444
2,1,3,1,24,71.75,0,3,1,0,0,0,0,0,0,0,0.1690140845,2,-2,14,1.183098592,8949,1050,8980,1019,0,17.75,11.83333333,0.1830985915,2.166666667,2.166666667,1,1,0.4166666667,15.88867521,,,,,,,12,0,46.5,25.5,0,0,0,0,0,0,0,,,144,1190.25,182.25,144,144,144,144,144,144,144
2,1,3,2,3.625,21.25,0,1,2,1,0,0,0,0,0,0,0.1690140845,2,2,15,1.267605634,8945,1054,8985,1014,0.375,17.75,11.83333333,0.2676056338,3.166666667,2.166666667,0,1,0,18.77098825,,,,,,,17,0,15.5,51,35.5,0,0,0,0,0,0,,,289,2.25,1156,342.25,289,289,289,289,289,289
2,1,3,3,3.625,20.75,1,1,1,1,0,0,0,0,0,0,0.7112676056,8.416666667,-8.416666667,22,1.85915493,8974,1025,8979,1020,0.375,17.75,11.83333333,0.8591549296,10.16666667,2.166666667,0,1,0,13.44148843,,,,,,,13.58333333,5,15.5,25.5,35.5,0,0,0,0,0,0,,,73.67361111,3.673611111,142.0069444,480.3402778,184.5069444,184.5069444,184.5069444,184.5069444,184.5069444,184.5069444
2,1,3,4,2.875,29.375,2,0,0,0,0,0,0,0,0,2,1.14084507,13.5,13.5,20,1.690140845,8993,1006,8989,1010,1.125,17.75,11.83333333,0.6901408451,8.166666667,2.166666667,0,1,-0.1764705882,58.59735489,,,,,,,33.5,10,0,0,0,0,0,0,0,0,191,,,552.25,1122.25,1122.25,1122.25,1122.25,1122.25,1122.25,1122.25,1122.25,24806.25
2,2,3,1,23.875,81.625,0,3,1,0,0,0,0,0,0,0,0.09230769231,1,1,11,1.015384615,8875,1124,8960,1039,0.125,16.25,10.83333333,0.01538461538,0.1666666667,0.1666666667,1,1,0.2142857143,15.88867521,,,,,,,12,0,46.5,25.5,0,0,0,0,0,0,0,,,144,1190.25,182.25,144,144,144,144,144,144,144
2,2,3,2,3.875,21.25,1,2,0,0,1,0,0,0,0,0,0.4230769231,4.583333333,4.583333333,9,0.8307692308,8973,1026,8974,1025,0.125,16.25,10.83333333,0.1692307692,1.833333333,0.1666666667,0,1,0.4,16.39279144,,,,,,,13.58333333,5,31,0,0,45.5,0,0,0,0,0,,,73.67361111,303.3402778,184.5069444,184.5069444,1018.673611,184.5069444,184.5069444,184.5069444,184.5069444,184.5069444
2,2,3,3,3.75,21.125,0,1,2,1,0,0,0,0,0,0,1.2,13,-13,30,2.769230769,8984,1015,8963,1036,0.25,16.25,10.83333333,1.769230769,19.16666667,0.1666666667,0,1,-0.3636363636,18.77098825,,,,,,,17,0,15.5,51,35.5,0,0,0,0,0,0,,,289,2.25,1156,342.25,289,289,289,289,289,289
2,2,3,4,3.875,21.375,1,1,1,1,0,0,0,0,0,0,0.1307692308,1.416666667,-1.416666667,15,1.384615385,8989,1010,8976,1023,0.125,16.25,10.83333333,0.3846153846,4.166666667,0.1666666667,0,1,0.25,13.44148843,,,,,,,13.58333333,5,15.5,25.5,35.5,0,0,0,0,0,0,,,73.67361111,3.673611111,142.0069444,480.3402778,184.5069444,184.5069444,184.5069444,184.5069444,184.5069444,184.5069444
2,3,3,1,3.625,20.875,0,2,1,1,0,0,0,0,0,0,0.8333333333,6.666666667,-6.666666667,22,2.75,8958,1041,8914,1085,0.375,12,8,1.75,14,2,0,1,-1,15.49605685,,,,,,,15.33333333,0,31,25.5,35.5,0,0,0,0,0,0,,,235.1111111,245.4444444,103.3611111,406.6944444,235.1111111,235.1111111,235.1111111,235.1111111,235.1111111,235.1111111
2,3,3,2,23.625,81.125,1,3,0,0,0,0,0,0,0,0,0.1770833333,1.416666667,-1.416666667,10,1.25,8987,1012,8978,1021,0.375,12,8,0.25,2,2,1,1,-0.1111111111,14.28251651,,,,,,,8.583333333,5,46.5,0,0,0,0,0,0,0,0,,,12.84027778,1437.673611,73.67361111,73.67361111,73.67361111,73.67361111,73.67361111,73.67361111,73.67361111,73.67361111
2,3,3,3,3.875,21.625,2,2,0,0,0,0,0,0,0,0,0.8541666667,6.833333333,6.833333333,0,0,8991,1008,8970,1029,0.125,12,8,1,8,2,0,1,1,9.83672258,,,,,,,6.833333333,10,31,0,0,0,0,0,0,0,0,,,10.02777778,584.0277778,46.69444444,46.69444444,46.69444444,46.69444444,46.69444444,46.69444444,46.69444444,46.69444444
2,3,3,4,3.75,21.125,1,2,0,1,0,0,0,0,0,0,0.5104166667,4.083333333,-4.083333333,16,2,8989,1010,8976,1023,0.25,12,8,1,8,2,0,1,-0.06666666667,14.00798383,,,,,,,11.91666667,5,31,0,35.5,0,0,0,0,0,0,,,47.84027778,364.1736111,142.0069444,556.1736111,142.0069444,142.0069444,142.0069444,142.0069444,142.0069444,142.0069444
2,4,3,1,8.875,26.375,3,1,0,0,0,0,0,0,0,0,0.7375,4.916666667,-4.916666667,10,1.5,8969,1030,8985,1014,0.125,10,6.666666667,0.5,3.333333333,3.333333333,1,4,0.5454545455,6.430936514,,,,,,,5.083333333,15,15.5,0,0,0,0,0,0,0,0,,,98.34027778,108.5069444,25.84027778,25.84027778,25.84027778,25.84027778,25.84027778,25.84027778,25.84027778,25.84027778
2,4,3,2,8.625,66,2,1,1,0,0,0,0,0,0,0,0.225,1.5,-1.5,10,1.5,8992,1007,8962,1037,0.375,10,6.666666667,0.5,3.333333333,3.333333333,1,4,0,9.19782583,,,,,,,8.5,10,15.5,25.5,0,0,0,0,0,0,0,,,2.25,49,289,72.25,72.25,72.25,72.25,72.25,72.25,72.25
2,4,3,3,8.5,26,2,2,0,0,0,0,0,0,0,0,0.475,3.166666667,-3.166666667,10,1.5,8996,1003,8987,1012,0.5,10,6.666666667,0.5,3.333333333,3.333333333,1,4,#DIV/0!,9.83672258,,,,,,,6.833333333,10,31,0,0,0,0,0,0,0,0,,,10.02777778,584.0277778,46.69444444,46.69444444,46.69444444,46.69444444,46.69444444,46.69444444,46.69444444,46.69444444
2,4,3,4,8.25,25.5,1,1,1,1,0,0,0,0,0,0,0.5375,3.583333333,3.583333333,10,1.5,8998,1001,8984,1015,0.75,10,6.666666667,0.5,3.333333333,3.333333333,1,4,0.375,13.44148843,,,,,,,13.58333333,5,15.5,25.5,35.5,0,0,0,0,0,0,,,73.67361111,3.673611111,142.0069444,480.3402778,184.5069444,184.5069444,184.5069444,184.5069444,184.5069444,184.5069444
2,5,3,1,3.875,21.25,1,2,1,0,0,0,0,0,0,0,0.7125,4.75,-4.75,15,2.25,8990,1009,8966,1033,0.125,10,6.666666667,1.25,8.333333333,0.6666666667,0,1,-0.5,11.94204756,,,,,,,10.25,5,31,25.5,0,0,0,0,0,0,0,,,27.5625,430.5625,232.5625,105.0625,105.0625,105.0625,105.0625,105.0625,105.0625,105.0625
2,5,3,2,3.875,21.25,3,1,0,0,0,0,0,0,0,0,0.4375,2.916666667,-2.916666667,8,1.2,8975,1024,8979,1020,0.125,10,6.666666667,0.2,1.333333333,0.6666666667,0,1,0.2,6.430936514,,,,,,,5.083333333,15,15.5,0,0,0,0,0,0,0,0,,,98.34027778,108.5069444,25.84027778,25.84027778,25.84027778,25.84027778,25.84027778,25.84027778,25.84027778,25.84027778
2,5,3,3,3.5,30.5,0,2,2,0,0,0,0,0,0,0,0.4,2.666666667,2.666666667,11,1.65,8934,1065,8961,1038,0.5,10,6.666666667,0.65,4.333333333,0.6666666667,0,1,-0.1,17.85621585,,,,,,,13.66666667,0,31,51,0,0,0,0,0,0,0,,,186.7777778,300.4444444,1393.777778,186.7777778,186.7777778,186.7777778,186.7777778,186.7777778,186.7777778,186.7777778
2,5,3,4,23.5,71.125,4,0,0,0,0,0,0,0,0,0,0.4,2.666666667,-2.666666667,6,0.9,8973,1026,8992,1007,0.5,10,6.666666667,0.1,0.6666666667,0.6666666667,1,1,0.4,6.146362972,,,,,,,3.333333333,20,0,0,0,0,0,0,0,0,0,,,277.7777778,11.11111111,11.11111111,11.11111111,11.11111111,11.11111111,11.11111111,11.11111111,11.11111111,11.11111111
2,6,3,1,3.125,20.5,0,2,2,0,0,0,0,0,0,0,0.9268292683,6.333333333,-6.333333333,20,2.926829268,8984,1015,8971,1028,0.875,10.25,6.833333333,1.926829268,13.16666667,0.1666666667,0,1,-0.3333333333,17.85621585,,,,,,,13.66666667,0,31,51,0,0,0,0,0,0,0,,,186.7777778,300.4444444,1393.777778,186.7777778,186.7777778,186.7777778,186.7777778,186.7777778,186.7777778,186.7777778
2,6,3,2,3.875,41.375,2,2,0,0,0,0,0,0,0,0,0.2682926829,1.833333333,1.833333333,5,0.7317073171,8983,1016,8989,1010,0.125,10.25,6.833333333,0.2682926829,1.833333333,0.1666666667,0,1,0.375,9.83672258,,,,,,,6.833333333,10,31,0,0,0,0,0,0,0,0,,,10.02777778,584.0277778,46.69444444,46.69444444,46.69444444,46.69444444,46.69444444,46.69444444,46.69444444,46.69444444
2,6,3,3,3.875,41.125,2,2,0,0,0,0,0,0,0,0,0.3170731707,2.166666667,-2.166666667,9,1.317073171,8899,1100,8959,1040,0.125,10.25,6.833333333,0.3170731707,2.166666667,0.1666666667,0,1,0.1818181818,9.83672258,,,,,,,6.833333333,10,31,0,0,0,0,0,0,0,0,,,10.02777778,584.0277778,46.69444444,46.69444444,46.69444444,46.69444444,46.69444444,46.69444444,46.69444444,46.69444444
2,6,3,4,23.875,41.25,2,2,0,0,0,0,0,0,0,0,0.0243902439,0.1666666667,-0.1666666667,7,1.024390244,8966,1033,8979,1020,0.125,10.25,6.833333333,0.0243902439,0.1666666667,0.1666666667,1,1,-0.1666666667,9.83672258,,,,,,,6.833333333,10,31,0,0,0,0,0,0,0,0,,,10.02777778,584.0277778,46.69444444,46.69444444,46.69444444,46.69444444,46.69444444,46.69444444,46.69444444,46.69444444
2,1,4,1,4,75.75,2,2,0,0,0,0,0,0,0,0,0.3518518519,3.166666667,-3.166666667,10,1.111111111,8973,1026,8968,1031,0,13.5,9,0.1111111111,1,0,0,1,0.5,9.83672258,,,,,,,6.833333333,10,31,0,0,0,0,0,0,0,0,,,10.02777778,584.0277778,46.69444444,46.69444444,46.69444444,46.69444444,46.69444444,46.69444444,46.69444444,46.69444444
2,1,4,2,23.5,44.75,0,4,0,0,0,0,0,0,0,0,0.1481481481,1.333333333,1.333333333,9,1,8889,1110,8992,1007,0.5,13.5,9,0,0,0,1,1,-0.8,19.05372521,,,,,,,10.33333333,0,62,0,0,0,0,0,0,0,0,,,106.7777778,2669.444444,106.7777778,106.7777778,106.7777778,106.7777778,106.7777778,106.7777778,106.7777778,106.7777778
2,1,4,3,4,24.75,2,2,0,0,0,0,0,0,0,0,0.9074074074,8.166666667,-8.166666667,15,1.666666667,8966,1033,8976,1023,0,13.5,9,0.6666666667,6,0,0,1,-0.6666666667,9.83672258,,,,,,,6.833333333,10,31,0,0,0,0,0,0,0,0,,,10.02777778,584.0277778,46.69444444,46.69444444,46.69444444,46.69444444,46.69444444,46.69444444,46.69444444,46.69444444
2,1,4,4,3.625,33,0,3,1,0,0,0,0,0,0,0,0.8888888889,8,-8,20,2.222222222,8995,1004,8976,1023,0.375,13.5,9,1.222222222,11,0,0,1,-1.857142857,15.88867521,,,,,,,12,0,46.5,25.5,0,0,0,0,0,0,0,,,144,1190.25,182.25,144,144,144,144,144,144,144
2,2,4,1,3.875,85.5,4,0,0,0,0,0,0,0,0,0,0.0625,0.3333333333,0.3333333333,3,0.5625,8706,1293,8985,1014,0.125,8,5.333333333,0.4375,2.333333333,0.6666666667,0,1,0.7,6.146362972,,,,,,,3.333333333,20,0,0,0,0,0,0,0,0,0,,,277.7777778,11.11111111,11.11111111,11.11111111,11.11111111,11.11111111,11.11111111,11.11111111,11.11111111,11.11111111
2,2,4,2,4,25.25,3,1,0,0,0,0,0,0,0,0,0.390625,2.083333333,2.083333333,3,0.5625,8852,1147,8984,1015,0,8,5.333333333,0.4375,2.333333333,0.6666666667,0,1,0.6666666667,6.430936514,,,,,,,5.083333333,15,15.5,0,0,0,0,0,0,0,0,,,98.34027778,108.5069444,25.84027778,25.84027778,25.84027778,25.84027778,25.84027778,25.84027778,25.84027778,25.84027778
2,2,4,3,3.625,24.75,1,2,1,0,0,0,0,0,0,0,1.828125,9.75,-9.75,20,3.75,8971,1028,8980,1019,0.375,8,5.333333333,2.75,14.66666667,0.6666666667,0,1,-0.3333333333,11.94204756,,,,,,,10.25,5,31,25.5,0,0,0,0,0,0,0,,,27.5625,430.5625,232.5625,105.0625,105.0625,105.0625,105.0625,105.0625,105.0625,105.0625
2,2,4,4,23.875,45.25,2,2,0,0,0,0,0,0,0,0,0.15625,0.8333333333,0.8333333333,6,1.125,8944,1055,8987,1012,0.125,8,5.333333333,0.125,0.6666666667,0.6666666667,1,1,0.7,9.83672258,,,,,,,6.833333333,10,31,0,0,0,0,0,0,0,0,,,10.02777778,584.0277778,46.69444444,46.69444444,46.69444444,46.69444444,46.69444444,46.69444444,46.69444444,46.69444444
2,3,4,1,23.875,44.75,2,2,0,0,0,0,0,0,0,0,0.2155172414,4.166666667,-4.166666667,11,0.5689655172,8985,1014,8947,1052,0.125,29,19.33333333,0.4310344828,8.333333333,8.333333333,1,1,-2.666666667,9.83672258,,,,,,,6.833333333,10,31,0,0,0,0,0,0,0,0,,,10.02777778,584.0277778,46.69444444,46.69444444,46.69444444,46.69444444,46.69444444,46.69444444,46.69444444,46.69444444
2,3,4,2,3.875,85,3,1,0,0,0,0,0,0,0,0,0.09913793103,1.916666667,-1.916666667,7,0.3620689655,8983,1016,8982,1017,0.125,29,19.33333333,0.6379310345,12.33333333,8.333333333,0,1,-1.333333333,6.430936514,,,,,,,5.083333333,15,15.5,0,0,0,0,0,0,0,0,,,98.34027778,108.5069444,25.84027778,25.84027778,25.84027778,25.84027778,25.84027778,25.84027778,25.84027778,25.84027778
2,3,4,3,3.625,25.25,4,0,0,0,0,0,0,0,0,0,0.01724137931,0.3333333333,0.3333333333,3,0.1551724138,8960,1039,8986,1013,0.375,29,19.33333333,0.8448275862,16.33333333,8.333333333,0,1,0.85,6.146362972,,,,,,,3.333333333,20,0,0,0,0,0,0,0,0,0,,,277.7777778,11.11111111,11.11111111,11.11111111,11.11111111,11.11111111,11.11111111,11.11111111,11.11111111,11.11111111
2,3,4,4,3.875,25,2,2,0,0,0,0,0,0,0,0,4.560344828,88.16666667,-88.16666667,95,4.913793103,8973,1026,8988,1011,0.125,29,19.33333333,3.913793103,75.66666667,8.333333333,0,1,-14.83333333,9.83672258,,,,,,,6.833333333,10,31,0,0,0,0,0,0,0,0,,,10.02777778,584.0277778,46.69444444,46.69444444,46.69444444,46.69444444,46.69444444,46.69444444,46.69444444,46.69444444
2,4,4,1,3.875,30.25,4,0,0,0,0,0,0,0,0,0,0.01818181818,0.3333333333,0.3333333333,3,0.1636363636,8952,1047,8989,1010,0.125,27.5,18.33333333,0.8363636364,15.33333333,14.33333333,0,1,0.7272727273,6.146362972,,,,,,,3.333333333,20,0,0,0,0,0,0,0,0,0,,,277.7777778,11.11111111,11.11111111,11.11111111,11.11111111,11.11111111,11.11111111,11.11111111,11.11111111,11.11111111
2,4,4,2,3.875,69.875,4,0,0,0,0,0,0,0,0,0,0.01818181818,0.3333333333,0.3333333333,3,0.1636363636,8983,1016,8992,1007,0.125,27.5,18.33333333,0.8363636364,15.33333333,14.33333333,0,1,0.5714285714,6.146362972,,,,,,,3.333333333,20,0,0,0,0,0,0,0,0,0,,,277.7777778,11.11111111,11.11111111,11.11111111,11.11111111,11.11111111,11.11111111,11.11111111,11.11111111,11.11111111
2,4,4,3,23.875,49.875,4,0,0,0,0,0,0,0,0,0,0.03636363636,0.6666666667,-0.6666666667,4,0.2181818182,8981,1018,8993,1006,0.125,27.5,18.33333333,0.7818181818,14.33333333,14.33333333,1,1,-0.3333333333,6.146362972,,,,,,,3.333333333,20,0,0,0,0,0,0,0,0,0,,,277.7777778,11.11111111,11.11111111,11.11111111,11.11111111,11.11111111,11.11111111,11.11111111,11.11111111,11.11111111
2,4,4,4,3.625,29.125,1,1,0,0,0,0,0,0,0,2,3.531818182,64.75,-64.75,100,5.454545455,8998,1001,8990,1009,0.375,27.5,18.33333333,4.454545455,81.66666667,14.33333333,0,1,-0.05263157895,58.53300351,,,,,,,35.25,5,15.5,0,0,0,0,0,0,0,191,,,915.0625,390.0625,1242.5625,1242.5625,1242.5625,1242.5625,1242.5625,1242.5625,1242.5625,24258.0625
2,5,4,1,3.5,24.75,2,2,0,0,0,0,0,0,0,0,0.6875,1.833333333,1.833333333,5,1.875,8968,1031,8979,1020,0.5,4,2.666666667,0.875,2.333333333,0.6666666667,0,1,-0.6666666667,9.83672258,,,,,,,6.833333333,10,31,0,0,0,0,0,0,0,0,,,10.02777778,584.0277778,46.69444444,46.69444444,46.69444444,46.69444444,46.69444444,46.69444444,46.69444444,46.69444444
2,5,4,2,4,25.25,4,0,0,0,0,0,0,0,0,0,0.25,0.6666666667,-0.6666666667,4,1.5,8997,1002,8988,1011,0,4,2.666666667,0.5,1.333333333,0.6666666667,0,1,-0.3333333333,6.146362972,,,,,,,3.333333333,20,0,0,0,0,0,0,0,0,0,,,277.7777778,11.11111111,11.11111111,11.11111111,11.11111111,11.11111111,11.11111111,11.11111111,11.11111111,11.11111111
2,5,4,3,3.875,34.375,3,1,0,0,0,0,0,0,0,0,0.03125,0.08333333333,0.08333333333,5,1.875,8996,1003,8962,1037,0.125,4,2.666666667,0.875,2.333333333,0.6666666667,0,1,-0.25,6.430936514,,,,,,,5.083333333,15,15.5,0,0,0,0,0,0,0,0,,,98.34027778,108.5069444,25.84027778,25.84027778,25.84027778,25.84027778,25.84027778,25.84027778,25.84027778,25.84027778
2,5,4,4,24,95.125,4,0,0,0,0,0,0,0,0,0,0.5,1.333333333,1.333333333,2,0.75,8970,1029,8976,1023,0,4,2.666666667,0.25,0.6666666667,0.6666666667,1,1,0.98,6.146362972,,,,,,,3.333333333,20,0,0,0,0,0,0,0,0,0,,,277.7777778,11.11111111,11.11111111,11.11111111,11.11111111,11.11111111,11.11111111,11.11111111,11.11111111,11.11111111
2,6,4,1,3.875,24.375,2,1,1,0,0,0,0,0,0,0,1.166666667,3.5,-3.5,12,4,8950,1049,8965,1034,0.125,4.5,3,3,9,0,0,1,-1.4,9.19782583,,,,,,,8.5,10,15.5,25.5,0,0,0,0,0,0,0,,,2.25,49,289,72.25,72.25,72.25,72.25,72.25,72.25,72.25
2,6,4,2,3.875,45.25,4,0,0,0,0,0,0,0,0,0,0.4444444444,1.333333333,1.333333333,2,0.6666666667,8997,1002,8992,1007,0.125,4.5,3,0.3333333333,1,0,0,1,0.5,6.146362972,,,,,,,3.333333333,20,0,0,0,0,0,0,0,0,0,,,277.7777778,11.11111111,11.11111111,11.11111111,11.11111111,11.11111111,11.11111111,11.11111111,11.11111111,11.11111111
2,6,4,3,3.875,45,4,0,0,0,0,0,0,0,0,0,0.7777777778,2.333333333,2.333333333,1,0.3333333333,8956,1043,8986,1013,0.125,4.5,3,0.6666666667,2,0,0,1,0.8,6.146362972,,,,,,,3.333333333,20,0,0,0,0,0,0,0,0,0,,,277.7777778,11.11111111,11.11111111,11.11111111,11.11111111,11.11111111,11.11111111,11.11111111,11.11111111,11.11111111
2,6,4,4,23.875,65.125,4,0,0,0,0,0,0,0,0,0,0.1111111111,0.3333333333,0.3333333333,3,1,8941,1058,8986,1013,0.125,4.5,3,0,0,0,1,1,-0.5,6.146362972,,,,,,,3.333333333,20,0,0,0,0,0,0,0,0,0,,,277.7777778,11.11111111,11.11111111,11.11111111,11.11111111,11.11111111,11.11111111,11.11111111,11.11111111,11.11111111
2,1,5,1,3.625,79.375,4,0,0,0,0,0,0,0,0,0,0.07407407407,1.666666667,-1.666666667,5,0.2222222222,8929,1070,8990,1009,0.375,33.75,22.5,0.7777777778,17.5,2.5,0,1,0.5833333333,6.146362972,,,,,,,3.333333333,20,0,0,0,0,0,0,0,0,0,,,277.7777778,11.11111111,11.11111111,11.11111111,11.11111111,11.11111111,11.11111111,11.11111111,11.11111111,11.11111111
2,1,5,2,3.875,48.625,1,2,0,0,0,0,0,0,0,1,3.47037037,78.08333333,-78.08333333,100,4.444444444,8973,1026,8956,1043,0.125,33.75,22.5,3.444444444,77.5,2.5,0,1,-49,30.24164256,,,,,,,21.91666667,5,31,0,0,0,0,0,0,0,95.5,,,286.1736111,82.50694444,480.3402778,480.3402778,480.3402778,480.3402778,480.3402778,480.3402778,480.3402778,5414.506944
2,1,5,3,3.875,28.625,3,1,0,0,0,0,0,0,0,0,0.2185185185,4.916666667,-4.916666667,10,0.4444444444,8960,1039,8989,1010,0.125,33.75,22.5,0.5555555556,12.5,2.5,0,1,-9,6.430936514,,,,,,,5.083333333,15,15.5,0,0,0,0,0,0,0,0,,,98.34027778,108.5069444,25.84027778,25.84027778,25.84027778,25.84027778,25.84027778,25.84027778,25.84027778,25.84027778
2,1,5,4,23.875,56.875,2,2,0,0,0,0,0,0,0,0,0.5851851852,13.16666667,-13.16666667,20,0.8888888889,8997,1002,8989,1010,0.125,33.75,22.5,0.1111111111,2.5,2.5,1,1,-5.666666667,9.83672258,,,,,,,6.833333333,10,31,0,0,0,0,0,0,0,0,,,10.02777778,584.0277778,46.69444444,46.69444444,46.69444444,46.69444444,46.69444444,46.69444444,46.69444444,46.69444444
2,2,5,1,3.875,89.375,4,0,0,0,0,0,0,0,0,0,0.5833333333,2.333333333,2.333333333,1,0.25,8943,1056,8991,1008,0.125,6,4,0.75,3,1,0,2,0.8,6.146362972,,,,,,,3.333333333,20,0,0,0,0,0,0,0,0,0,,,277.7777778,11.11111111,11.11111111,11.11111111,11.11111111,11.11111111,11.11111111,11.11111111,11.11111111,11.11111111
2,2,5,2,13.875,39.125,4,0,0,0,0,0,0,0,0,0,0.08333333333,0.3333333333,0.3333333333,3,0.75,8947,1052,8988,1011,0.125,6,4,0.25,1,1,1,2,0.97,6.146362972,,,,,,,3.333333333,20,0,0,0,0,0,0,0,0,0,,,277.7777778,11.11111111,11.11111111,11.11111111,11.11111111,11.11111111,11.11111111,11.11111111,11.11111111,11.11111111
2,2,5,3,4,28.75,3,1,0,0,0,0,0,0,0,0,2.479166667,9.916666667,-9.916666667,15,3.75,8986,1013,8944,1055,0,6,4,2.75,11,1,0,2,-0.5,6.430936514,,,,,,,5.083333333,15,15.5,0,0,0,0,0,0,0,0,,,98.34027778,108.5069444,25.84027778,25.84027778,25.84027778,25.84027778,25.84027778,25.84027778,25.84027778,25.84027778
2,2,5,4,13.875,59.125,4,0,0,0,0,0,0,0,0,0,0.4166666667,1.666666667,-1.666666667,5,1.25,8992,1007,8980,1019,0.125,6,4,0.25,1,1,1,2,0.75,6.146362972,,,,,,,3.333333333,20,0,0,0,0,0,0,0,0,0,,,277.7777778,11.11111111,11.11111111,11.11111111,11.11111111,11.11111111,11.11111111,11.11111111,11.11111111,11.11111111
2,3,5,1,3.875,48.625,2,2,0,0,0,0,0,0,0,0,0.2659574468,4.166666667,-4.166666667,11,0.7021276596,8973,1026,8991,1008,0.125,23.5,15.66666667,0.2978723404,4.666666667,1.666666667,0,1,-10,9.83672258,,,,,,,6.833333333,10,31,0,0,0,0,0,0,0,0,,,10.02777778,584.0277778,46.69444444,46.69444444,46.69444444,46.69444444,46.69444444,46.69444444,46.69444444,46.69444444
2,3,5,2,23.875,108.875,1,2,1,0,0,0,0,0,0,0,0.2393617021,3.75,-3.75,14,0.8936170213,8984,1015,8978,1021,0.125,23.5,15.66666667,0.1063829787,1.666666667,1.666666667,1,1,-3.666666667,11.94204756,,,,,,,10.25,5,31,25.5,0,0,0,0,0,0,0,,,27.5625,430.5625,232.5625,105.0625,105.0625,105.0625,105.0625,105.0625,105.0625,105.0625
2,3,5,3,3.5,28.75,1,0,0,1,1,0,0,0,0,1,1.89893617,29.75,-29.75,60,3.829787234,8982,1017,8971,1028,0.5,23.5,15.66666667,2.829787234,44.33333333,1.666666667,0,1,-3,32.62763399,,,,,,,30.25,5,0,0,35.5,45.5,0,0,0,0,95.5,,,637.5625,915.0625,915.0625,27.5625,232.5625,915.0625,915.0625,915.0625,915.0625,4257.5625
2,3,5,4,3.625,28.625,3,1,0,0,0,0,0,0,0,0,0.25,3.916666667,-3.916666667,9,0.5744680851,8998,1001,8986,1013,0.375,23.5,15.66666667,0.4255319149,6.666666667,1.666666667,0,1,-0.8,6.430936514,,,,,,,5.083333333,15,15.5,0,0,0,0,0,0,0,0,,,98.34027778,108.5069444,25.84027778,25.84027778,25.84027778,25.84027778,25.84027778,25.84027778,25.84027778,25.84027778
2,4,5,1,3.625,33.875,2,0,0,1,1,0,0,0,0,0,1.676056338,19.83333333,-19.83333333,35,2.957746479,8888,1111,8982,1017,0.375,17.75,11.83333333,1.957746479,23.16666667,0.1666666667,0,1,-2.181818182,17.23497736,,,,,,,15.16666667,10,0,0,35.5,45.5,0,0,0,0,0,,,26.69444444,230.0277778,230.0277778,413.4444444,920.1111111,230.0277778,230.0277778,230.0277778,230.0277778,230.0277778
2,4,5,2,3.625,73.5,0,1,2,1,0,0,0,0,0,0,0.2535211268,3,-3,20,1.690140845,8995,1004,8946,1053,0.375,17.75,11.83333333,0.6901408451,8.166666667,0.1666666667,0,1,-0.4285714286,18.77098825,,,,,,,17,0,15.5,51,35.5,0,0,0,0,0,0,,,289,2.25,1156,342.25,289,289,289,289,289,289
2,4,5,3,3.125,53,4,0,0,0,0,0,0,0,0,0,0.05633802817,0.6666666667,-0.6666666667,4,0.338028169,8995,1004,8987,1012,0.875,17.75,11.83333333,0.661971831,7.833333333,0.1666666667,0,1,0.9333333333,6.146362972,,,,,,,3.333333333,20,0,0,0,0,0,0,0,0,0,,,277.7777778,11.11111111,11.11111111,11.11111111,11.11111111,11.11111111,11.11111111,11.11111111,11.11111111,11.11111111
2,4,5,4,23.625,52.75,3,1,0,0,0,0,0,0,0,0,0.5845070423,6.916666667,-6.916666667,12,1.014084507,8994,1005,8994,1005,0.375,17.75,11.83333333,0.01408450704,0.1666666667,0.1666666667,1,1,-0.3333333333,6.430936514,,,,,,,5.083333333,15,15.5,0,0,0,0,0,0,0,0,,,98.34027778,108.5069444,25.84027778,25.84027778,25.84027778,25.84027778,25.84027778,25.84027778,25.84027778,25.84027778
2,5,5,1,4,28.75,4,0,0,0,0,0,0,0,0,0,1.333333333,1.333333333,1.333333333,2,2,8978,1021,8988,1011,0,1.5,1,1,1,0,0,1,0.9428571429,6.146362972,,,,,,,3.333333333,20,0,0,0,0,0,0,0,0,0,,,277.7777778,11.11111111,11.11111111,11.11111111,11.11111111,11.11111111,11.11111111,11.11111111,11.11111111,11.11111111
2,5,5,2,24,49.25,4,0,0,0,0,0,0,0,0,0,2.333333333,2.333333333,2.333333333,1,1,8983,1016,8984,1015,0,1.5,1,0,0,0,1,1,0.95,6.146362972,,,,,,,3.333333333,20,0,0,0,0,0,0,0,0,0,,,277.7777778,11.11111111,11.11111111,11.11111111,11.11111111,11.11111111,11.11111111,11.11111111,11.11111111,11.11111111
2,5,5,3,4,38.375,4,0,0,0,0,0,0,0,0,0,0.3333333333,0.3333333333,0.3333333333,3,3,8953,1046,8992,1007,0,1.5,1,2,2,0,0,1,0.25,6.146362972,,,,,,,3.333333333,20,0,0,0,0,0,0,0,0,0,,,277.7777778,11.11111111,11.11111111,11.11111111,11.11111111,11.11111111,11.11111111,11.11111111,11.11111111,11.11111111
2,5,5,4,4,99.125,4,0,0,0,0,0,0,0,0,0,3.333333333,3.333333333,3.333333333,0,0,8902,1097,8994,1005,0,1.5,1,1,1,0,0,1,1,6.146362972,,,,,,,3.333333333,20,0,0,0,0,0,0,0,0,0,,,277.7777778,11.11111111,11.11111111,11.11111111,11.11111111,11.11111111,11.11111111,11.11111111,11.11111111,11.11111111
2,6,5,1,14,38.375,4,0,0,0,0,0,0,0,0,0,2.333333333,2.333333333,2.333333333,1,1,8984,1015,8984,1015,0,1.5,1,0,0,0,1,2,0.5,6.146362972,,,,,,,3.333333333,20,0,0,0,0,0,0,0,0,0,,,277.7777778,11.11111111,11.11111111,11.11111111,11.11111111,11.11111111,11.11111111,11.11111111,11.11111111,11.11111111
2,6,5,2,4,49.25,4,0,0,0,0,0,0,0,0,0,1.333333333,1.333333333,1.333333333,2,2,8998,1001,8989,1010,0,1.5,1,1,1,0,0,2,-1,6.146362972,,,,,,,3.333333333,20,0,0,0,0,0,0,0,0,0,,,277.7777778,11.11111111,11.11111111,11.11111111,11.11111111,11.11111111,11.11111111,11.11111111,11.11111111,11.11111111
2,6,5,3,14,59,4,0,0,0,0,0,0,0,0,0,2.333333333,2.333333333,2.333333333,1,1,8804,1195,8981,1018,0,1.5,1,0,0,0,1,2,0.6666666667,6.146362972,,,,,,,3.333333333,20,0,0,0,0,0,0,0,0,0,,,277.7777778,11.11111111,11.11111111,11.11111111,11.11111111,11.11111111,11.11111111,11.11111111,11.11111111,11.11111111
2,6,5,4,4,69.125,4,0,0,0,0,0,0,0,0,0,1.333333333,1.333333333,1.333333333,2,2,8988,1011,8986,1013,0,1.5,1,1,1,0,0,2,#DIV/0!,6.146362972,,,,,,,3.333333333,20,0,0,0,0,0,0,0,0,0,,,277.7777778,11.11111111,11.11111111,11.11111111,11.11111111,11.11111111,11.11111111,11.11111111,11.11111111,11.11111111
3,1,1,1,3.75,13.75,0,0,0,0,2,2,0,0,0,0,0.1714285714,4,-4,51,2.185714286,8965,1034,8920,1079,0.25,35,23.33333333,1.185714286,27.66666667,3.333333333,0,1,,59.61878898,,,,,,,47,0,0,0,0,131,151,0,0,0,0,,,2209,2209,2209,2209,7056,10816,2209,2209,2209,2209
3,1,1,2,23.75,33.75,0,1,2,1,0,0,0,0,0,0,0.4428571429,10.33333333,10.33333333,20,0.8571428571,8919,1080,8961,1038,0.25,35,23.33333333,0.1428571429,3.333333333,3.333333333,1,1,,32.83485614,,,,,,,30.33333333,0,35.5,91,55.5,0,0,0,0,0,0,,,920.1111111,26.69444444,3680.444444,633.3611111,920.1111111,920.1111111,920.1111111,920.1111111,920.1111111,920.1111111
3,1,1,3,3.75,13.75,0,0,0,1,1,1,0,0,1,0,0.3964285714,9.25,-9.25,42,1.8,8896,1103,8732,1267,0.25,35,23.33333333,0.8,18.66666667,3.333333333,0,1,,33.0539332,,,,,,,32.75,0,0,0,55.5,65.5,75.5,0,0,0,0,,,1072.5625,1072.5625,1072.5625,517.5625,1072.5625,1827.5625,1072.5625,1072.5625,1072.5625,1072.5625
3,1,1,4,3.625,13.625,0,0,1,2,1,0,0,0,0,0,0.4285714286,10,10,27,1.157142857,8891,1108,8955,1044,0.375,35,23.33333333,0.1571428571,3.666666667,3.333333333,0,1,,39.92931254,,,,,,,37,0,0,45.5,111,65.5,0,0,0,0,0,,,1369,1369,72.25,5476,812.25,1369,1369,1369,1369,1369
3,2,1,1,23.75,33.75,0,1,2,1,0,0,0,0,0,0,0.2015503876,4.333333333,4.333333333,26,1.209302326,8974,1025,8923,1076,0.25,32.25,21.5,0.2093023256,4.5,4.5,1,1,0.4901960784,32.83485614,,,,,,,30.33333333,0,35.5,91,55.5,0,0,0,0,0,0,,,920.1111111,26.69444444,3680.444444,633.3611111,920.1111111,920.1111111,920.1111111,920.1111111,920.1111111,920.1111111
3,2,1,2,3.625,13.625,0,0,0,1,0,1,2,0,0,0,0.480620155,10.33333333,10.33333333,40,1.860465116,8983,1016,8946,1053,0.375,32.25,21.5,0.8604651163,18.5,4.5,0,1,-1,57.40610691,,,,,,,50.33333333,0,0,0,55.5,0,75.5,171,0,0,0,,,2533.444444,2533.444444,2533.444444,26.69444444,2533.444444,633.3611111,14560.44444,2533.444444,2533.444444,2533.444444
3,2,1,3,3.5,13.5,2,2,0,0,0,0,0,0,0,0,0.5736434109,12.33333333,12.33333333,8,0.3720930233,8892,1107,8817,1182,0.5,32.25,21.5,0.6279069767,13.5,4.5,0,1,0.8095238095,26.10576777,,,,,,,20.33333333,51,71,0,0,0,0,0,0,0,0,,,940.4444444,2567.111111,413.4444444,413.4444444,413.4444444,413.4444444,413.4444444,413.4444444,413.4444444,413.4444444
3,2,1,4,3.5,13.5,0,0,0,0,0,1,0,2,1,0,0.492248062,10.58333333,-10.58333333,55,2.558139535,8872,1127,8872,1127,0.5,32.25,21.5,1.558139535,33.5,4.5,0,1,-1.037037037,61.83491687,,,,,,,44.41666667,0,0,0,0,0,75.5,0,191,0,0,,,1972.840278,1972.840278,1972.840278,1972.840278,1972.840278,966.1736111,1972.840278,21486.67361,1972.840278,1972.840278
3,3,1,1,3.75,13.75,0,1,2,1,0,0,0,0,0,0,1.213114754,12.33333333,12.33333333,18,1.770491803,8655,1344,8923,1076,0.25,15.25,10.16666667,0.7704918033,7.833333333,4.833333333,0,1,0.3076923077,32.83485614,,,,,,,30.33333333,0,35.5,91,55.5,0,0,0,0,0,0,,,920.1111111,26.69444444,3680.444444,633.3611111,920.1111111,920.1111111,920.1111111,920.1111111,920.1111111,920.1111111
3,3,1,2,24,34,1,2,1,0,0,0,0,0,0,0,0.8524590164,8.666666667,8.666666667,15,1.475409836,8968,1031,8986,1013,0,15.25,10.16666667,0.4754098361,4.833333333,4.833333333,1,1,0.625,25.7706767,,,,,,,23.66666667,25.5,71,45.5,0,0,0,0,0,0,0,,,3.361111111,2240.444444,476.6944444,560.1111111,560.1111111,560.1111111,560.1111111,560.1111111,560.1111111,560.1111111
3,3,1,3,3.75,13.75,0,1,2,1,0,0,0,0,0,0,0.2295081967,2.333333333,2.333333333,28,2.754098361,8907,1092,8975,1024,0.25,15.25,10.16666667,1.754098361,17.83333333,4.833333333,0,1,-2.5,32.83485614,,,,,,,30.33333333,0,35.5,91,55.5,0,0,0,0,0,0,,,920.1111111,26.69444444,3680.444444,633.3611111,920.1111111,920.1111111,920.1111111,920.1111111,920.1111111,920.1111111
3,3,1,4,3.625,13.625,3,1,0,0,0,0,0,0,0,0,1.836065574,18.66666667,18.66666667,0,0,8829,1170,8873,1126,0.375,15.25,10.16666667,1,10.16666667,4.833333333,0,1,1,25.32905666,,,,,,,18.66666667,76.5,35.5,0,0,0,0,0,0,0,0,,,3344.694444,283.3611111,348.4444444,348.4444444,348.4444444,348.4444444,348.4444444,348.4444444,348.4444444,348.4444444
3,4,1,1,3.625,13.625,0,0,2,1,1,0,0,0,0,0,0.8409090909,12.33333333,12.33333333,23,1.568181818,8929,1070,8941,1058,0.375,22,14.66666667,0.5681818182,8.333333333,0.3333333333,0,1,-0.2777777778,36.26928606,,,,,,,35.33333333,0,0,91,55.5,65.5,0,0,0,0,0,,,1248.444444,1248.444444,3098.777778,406.6944444,910.0277778,1248.444444,1248.444444,1248.444444,1248.444444,1248.444444
3,4,1,2,23.875,33.875,0,2,1,1,0,0,0,0,0,0,0.9318181818,13.66666667,13.66666667,15,1.022727273,8936,1063,8955,1044,0.125,22,14.66666667,0.02272727273,0.3333333333,0.3333333333,1,1,0,29.2368679,,,,,,,28.66666667,0,71,45.5,55.5,0,0,0,0,0,0,,,821.7777778,1792.111111,283.3611111,720.0277778,821.7777778,821.7777778,821.7777778,821.7777778,821.7777778,821.7777778
3,4,1,3,3.5,13.5,0,0,2,2,0,0,0,0,0,0,0.25,3.666666667,3.666666667,30,2.045454545,8958,1041,8967,1032,0.5,22,14.66666667,1.045454545,15.33333333,0.3333333333,0,1,-0.07142857143,42.81951788,,,,,,,33.66666667,0,0,91,111,0,0,0,0,0,0,,,1133.444444,1133.444444,3287.111111,5980.444444,1133.444444,1133.444444,1133.444444,1133.444444,1133.444444,1133.444444
3,4,1,4,3.375,13.375,0,1,0,2,1,0,0,0,0,0,1.045454545,15.33333333,15.33333333,20,1.363636364,8980,1019,8921,1078,0.625,22,14.66666667,0.3636363636,5.333333333,0.3333333333,0,1,#DIV/0!,39.21047196,,,,,,,35.33333333,0,35.5,0,111,65.5,0,0,0,0,0,,,1248.444444,0.02777777778,1248.444444,5725.444444,910.0277778,1248.444444,1248.444444,1248.444444,1248.444444,1248.444444
3,1,2,1,3.625,17.375,1,0,1,2,0,0,0,0,0,0,0.3720930233,5.333333333,5.333333333,25,1.744186047,8915,1084,8950,1049,0.375,21.5,14.33333333,0.7441860465,10.66666667,0.6666666667,0,2,-0.08695652174,36.33356269,,,,,,,30.33333333,25.5,0,45.5,111,0,0,0,0,0,0,,,23.36111111,920.1111111,230.0277778,6507.111111,920.1111111,920.1111111,920.1111111,920.1111111,920.1111111,920.1111111
3,1,2,2,13.875,47.625,0,2,2,0,0,0,0,0,0,0,0.8372093023,12,12,15,1.046511628,8996,1003,8987,1012,0.125,21.5,14.33333333,0.04651162791,0.6666666667,0.6666666667,1,2,0,34.4441577,,,,,,,27,0,71,91,0,0,0,0,0,0,0,,,729,1936,4096,729,729,729,729,729,729,729
3,1,2,3,3.625,17.375,0,0,1,2,1,0,0,0,0,0,0.4186046512,6,6,31,2.162790698,8873,1126,8921,1078,0.375,21.5,14.33333333,1.162790698,16.66666667,0.6666666667,0,2,-0.03333333333,39.92931254,,,,,,,37,0,0,45.5,111,65.5,0,0,0,0,0,,,1369,1369,72.25,5476,812.25,1369,1369,1369,1369,1369
3,1,2,4,13.875,27.5,0,3,1,0,0,0,0,0,0,0,0.7209302326,10.33333333,10.33333333,15,1.046511628,8987,1012,8937,1062,0.125,21.5,14.33333333,0.04651162791,0.6666666667,0.6666666667,1,2,0.25,34.82663412,,,,,,,25.33333333,0,106.5,45.5,0,0,0,0,0,0,0,,,641.7777778,6588.027778,406.6944444,641.7777778,641.7777778,641.7777778,641.7777778,641.7777778,641.7777778,641.7777778
3,2,2,1,3.5,37.25,0,2,2,0,0,0,0,0,0,0,1.6,12,12,15,2,8826,1173,8966,1033,0.5,11.25,7.5,1,7.5,0.5,0,1,0.4,34.4441577,,,,,,,27,0,71,91,0,0,0,0,0,0,0,,,729,1936,4096,729,729,729,729,729,729,729
3,2,2,2,3.875,17.5,1,3,0,0,0,0,0,0,0,0,1.733333333,13,13,9,1.2,8994,1005,8973,1026,0.125,11.25,7.5,0.2,1.5,0.5,0,1,0.4,33.2031625,,,,,,,22,25.5,106.5,0,0,0,0,0,0,0,0,,,12.25,7140.25,484,484,484,484,484,484,484,484
3,2,2,3,3.5,17,0,1,1,1,0,0,0,1,0,0,3.288888889,24.66666667,24.66666667,14,1.866666667,8931,1068,8934,1065,0.5,11.25,7.5,0.8666666667,6.5,0.5,0,1,0.5483870968,35.41296059,,,,,,,38.66666667,0,35.5,45.5,55.5,0,0,0,95.5,0,0,,,1495.111111,10.02777778,46.69444444,283.3611111,1495.111111,1495.111111,1495.111111,3230.027778,1495.111111,1495.111111
3,2,2,4,23.875,37.375,1,2,1,0,0,0,0,0,0,0,2.222222222,16.66666667,16.66666667,7,0.9333333333,8889,1110,8922,1077,0.125,11.25,7.5,0.06666666667,0.5,0.5,1,1,0.5333333333,25.7706767,,,,,,,23.66666667,25.5,71,45.5,0,0,0,0,0,0,0,,,3.361111111,2240.444444,476.6944444,560.1111111,560.1111111,560.1111111,560.1111111,560.1111111,560.1111111,560.1111111
3,3,2,1,14,27.75,4,0,0,0,0,0,0,0,0,0,4.285714286,15,15,2,0.5714285714,8993,1006,8984,1015,0,5.25,3.5,0.4285714286,1.5,1.5,1,2,0.8666666667,31.34645115,,,,,,,17,102,0,0,0,0,0,0,0,0,0,,,7225,289,289,289,289,289,289,289,289,289
3,3,2,2,13.875,47.875,3,1,0,0,0,0,0,0,0,0,3.904761905,13.66666667,13.66666667,5,1.428571429,8994,1005,8992,1007,0.125,5.25,3.5,0.4285714286,1.5,1.5,1,2,0.4444444444,25.32905666,,,,,,,18.66666667,76.5,35.5,0,0,0,0,0,0,0,0,,,3344.694444,283.3611111,348.4444444,348.4444444,348.4444444,348.4444444,348.4444444,348.4444444,348.4444444,348.4444444
3,3,2,3,4,17.75,4,0,0,0,0,0,0,0,0,0,3.142857143,11,11,6,1.714285714,8993,1006,8981,1018,0,5.25,3.5,0.7142857143,2.5,1.5,0,2,0.5714285714,31.34645115,,,,,,,17,102,0,0,0,0,0,0,0,0,0,,,7225,289,289,289,289,289,289,289,289,289
3,3,2,4,3.875,17.5,3,1,0,0,0,0,0,0,0,0,3.047619048,10.66666667,10.66666667,8,2.285714286,8989,1010,8930,1069,0.125,5.25,3.5,1.285714286,4.5,1.5,0,2,-0.1428571429,25.32905666,,,,,,,18.66666667,76.5,35.5,0,0,0,0,0,0,0,0,,,3344.694444,283.3611111,348.4444444,348.4444444,348.4444444,348.4444444,348.4444444,348.4444444,348.4444444,348.4444444
3,4,2,1,4,17.625,4,0,0,0,0,0,0,0,0,0,3.692307692,16,16,1,0.2307692308,8975,1024,8988,1011,0,6.5,4.333333333,0.7692307692,3.333333333,0.6666666667,0,1,0.5,31.34645115,,,,,,,17,102,0,0,0,0,0,0,0,0,0,,,7225,289,289,289,289,289,289,289,289,289
3,4,2,2,3.5,37.375,2,2,0,0,0,0,0,0,0,0,2.384615385,10.33333333,10.33333333,10,2.307692308,8974,1025,8982,1017,0.5,6.5,4.333333333,1.307692308,5.666666667,0.6666666667,0,1,-1,26.10576777,,,,,,,20.33333333,51,71,0,0,0,0,0,0,0,0,,,940.4444444,2567.111111,413.4444444,413.4444444,413.4444444,413.4444444,413.4444444,413.4444444,413.4444444,413.4444444
3,4,2,3,3.5,17,2,2,0,0,0,0,0,0,0,0,2.384615385,10.33333333,10.33333333,10,2.307692308,8931,1068,8985,1014,0.5,6.5,4.333333333,1.307692308,5.666666667,0.6666666667,0,1,-0.6666666667,26.10576777,,,,,,,20.33333333,51,71,0,0,0,0,0,0,0,0,,,940.4444444,2567.111111,413.4444444,413.4444444,413.4444444,413.4444444,413.4444444,413.4444444,413.4444444,413.4444444
3,4,2,4,23.5,36.875,2,2,0,0,0,0,0,0,0,0,3.538461538,15.33333333,15.33333333,5,1.153846154,8981,1018,8984,1015,0.5,6.5,4.333333333,0.1538461538,0.6666666667,0.6666666667,1,1,0.375,26.10576777,,,,,,,20.33333333,51,71,0,0,0,0,0,0,0,0,,,940.4444444,2567.111111,413.4444444,413.4444444,413.4444444,413.4444444,413.4444444,413.4444444,413.4444444,413.4444444
3,1,3,1,4,21.375,3,1,0,0,0,0,0,0,0,0,2.685714286,15.66666667,15.66666667,3,0.5142857143,8987,1012,8972,1027,0,8.75,5.833333333,0.4857142857,2.833333333,2.166666667,0,1,-2,25.32905666,,,,,,,18.66666667,76.5,35.5,0,0,0,0,0,0,0,0,,,3344.694444,283.3611111,348.4444444,348.4444444,348.4444444,348.4444444,348.4444444,348.4444444,348.4444444,348.4444444
3,1,3,2,3.875,51.5,2,2,0,0,0,0,0,0,0,0,1.942857143,11.33333333,11.33333333,9,1.542857143,8924,1075,8991,1008,0.125,8.75,5.833333333,0.5428571429,3.166666667,2.166666667,0,1,0.1,26.10576777,,,,,,,20.33333333,51,71,0,0,0,0,0,0,0,0,,,940.4444444,2567.111111,413.4444444,413.4444444,413.4444444,413.4444444,413.4444444,413.4444444,413.4444444,413.4444444
3,1,3,3,3.625,21,1,2,1,0,0,0,0,0,0,0,1.485714286,8.666666667,8.666666667,15,2.571428571,8973,1026,8918,1081,0.375,8.75,5.833333333,1.571428571,9.166666667,2.166666667,0,1,-0.5,25.7706767,,,,,,,23.66666667,25.5,71,45.5,0,0,0,0,0,0,0,,,3.361111111,2240.444444,476.6944444,560.1111111,560.1111111,560.1111111,560.1111111,560.1111111,560.1111111,560.1111111
3,1,3,4,23.875,51.375,2,2,0,0,0,0,0,0,0,0,2.114285714,12.33333333,12.33333333,8,1.371428571,8867,1132,8976,1023,0.125,8.75,5.833333333,0.3714285714,2.166666667,2.166666667,1,1,-0.6,26.10576777,,,,,,,20.33333333,51,71,0,0,0,0,0,0,0,0,,,940.4444444,2567.111111,413.4444444,413.4444444,413.4444444,413.4444444,413.4444444,413.4444444,413.4444444,413.4444444
3,2,3,1,14,51.25,4,0,0,0,0,0,0,0,0,0,7.5,15,15,2,1,8985,1014,8989,1010,0,3,2,0,0,0,1,2,0.3333333333,31.34645115,,,,,,,17,102,0,0,0,0,0,0,0,0,0,,,7225,289,289,289,289,289,289,289,289,289
3,2,3,2,14,31.5,4,0,0,0,0,0,0,0,0,0,7.5,15,15,2,1,8940,1059,8989,1010,0,3,2,0,0,0,1,2,0.7777777778,31.34645115,,,,,,,17,102,0,0,0,0,0,0,0,0,0,,,7225,289,289,289,289,289,289,289,289,289
3,2,3,3,3.875,20.875,3,1,0,0,0,0,0,0,0,0,7.333333333,14.66666667,14.66666667,4,2,8998,1001,8980,1019,0.125,3,2,1,2,0,0,2,0.7333333333,25.32905666,,,,,,,18.66666667,76.5,35.5,0,0,0,0,0,0,0,0,,,3344.694444,283.3611111,348.4444444,348.4444444,348.4444444,348.4444444,348.4444444,348.4444444,348.4444444,348.4444444
3,2,3,4,3.875,41.25,3,1,0,0,0,0,0,0,0,0,7.333333333,14.66666667,14.66666667,4,2,8837,1162,8985,1014,0.125,3,2,1,2,0,0,2,0.5,25.32905666,,,,,,,18.66666667,76.5,35.5,0,0,0,0,0,0,0,0,,,3344.694444,283.3611111,348.4444444,348.4444444,348.4444444,348.4444444,348.4444444,348.4444444,348.4444444,348.4444444
3,3,3,1,14,41.75,4,0,0,0,0,0,0,0,0,0,24,16,16,1,1.5,8931,1068,8990,1009,0,1,0.6666666667,0.5,0.3333333333,0.3333333333,1,2,0.5,31.34645115,,,,,,,17,102,0,0,0,0,0,0,0,0,0,,,7225,289,289,289,289,289,289,289,289,289
3,3,3,2,4,51.875,4,0,0,0,0,0,0,0,0,0,25.5,17,17,0,0,8951,1048,8982,1017,0,1,0.6666666667,1,0.6666666667,0.3333333333,0,2,1,31.34645115,,,,,,,17,102,0,0,0,0,0,0,0,0,0,,,7225,289,289,289,289,289,289,289,289,289
3,3,3,3,4,21.75,4,0,0,0,0,0,0,0,0,0,22.5,15,15,2,3,8907,1092,8995,1004,0,1,0.6666666667,2,1.333333333,0.3333333333,0,2,0.5,31.34645115,,,,,,,17,102,0,0,0,0,0,0,0,0,0,,,7225,289,289,289,289,289,289,289,289,289
3,3,3,4,14,31.5,4,0,0,0,0,0,0,0,0,0,24,16,16,1,1.5,8993,1006,8991,1008,0,1,0.6666666667,0.5,0.3333333333,0.3333333333,1,2,0.75,31.34645115,,,,,,,17,102,0,0,0,0,0,0,0,0,0,,,7225,289,289,289,289,289,289,289,289,289
3,4,3,1,9,26.625,4,0,0,0,0,0,0,0,0,0,24,16,16,1,1.5,8999,1000,8992,1007,0,1,0.6666666667,0.5,0.3333333333,0.3333333333,1,4,0,31.34645115,,,,,,,17,102,0,0,0,0,0,0,0,0,0,,,7225,289,289,289,289,289,289,289,289,289
3,4,3,2,9,46.375,4,0,0,0,0,0,0,0,0,0,24,16,16,1,1.5,8992,1007,8991,1008,0,1,0.6666666667,0.5,0.3333333333,0.3333333333,1,4,#DIV/0!,31.34645115,,,,,,,17,102,0,0,0,0,0,0,0,0,0,,,7225,289,289,289,289,289,289,289,289,289
3,4,3,3,9,26,4,0,0,0,0,0,0,0,0,0,24,16,16,1,1.5,8976,1023,8990,1009,0,1,0.6666666667,0.5,0.3333333333,0.3333333333,1,4,0.5,31.34645115,,,,,,,17,102,0,0,0,0,0,0,0,0,0,,,7225,289,289,289,289,289,289,289,289,289
3,4,3,4,9,45.875,4,0,0,0,0,0,0,0,0,0,24,16,16,1,1.5,8979,1020,8987,1012,0,1,0.6666666667,0.5,0.3333333333,0.3333333333,1,4,0,31.34645115,,,,,,,17,102,0,0,0,0,0,0,0,0,0,,,7225,289,289,289,289,289,289,289,289,289
3,1,4,1,4,25.375,4,0,0,0,0,0,0,0,0,0,9.333333333,14,14,3,2,8997,1002,8980,1019,0,2.25,1.5,1,1.5,0.5,0,2,-2,31.34645115,,,,,,,17,102,0,0,0,0,0,0,0,0,0,,,7225,289,289,289,289,289,289,289,289,289
3,1,4,2,14,65.5,4,0,0,0,0,0,0,0,0,0,10.66666667,16,16,1,0.6666666667,8997,1002,8992,1007,0,2.25,1.5,0.3333333333,0.5,0.5,1,2,0,31.34645115,,,,,,,17,102,0,0,0,0,0,0,0,0,0,,,7225,289,289,289,289,289,289,289,289,289
3,1,4,3,14,35,4,0,0,0,0,0,0,0,0,0,10,15,15,2,1.333333333,8917,1082,8987,1012,0,2.25,1.5,0.3333333333,0.5,0.5,1,2,-1,31.34645115,,,,,,,17,102,0,0,0,0,0,0,0,0,0,,,7225,289,289,289,289,289,289,289,289,289
3,1,4,4,4,55.375,4,0,0,0,0,0,0,0,0,0,9.333333333,14,14,3,2,8980,1019,8988,1011,0,2.25,1.5,1,1.5,0.5,0,2,-2,31.34645115,,,,,,,17,102,0,0,0,0,0,0,0,0,0,,,7225,289,289,289,289,289,289,289,289,289
3,2,4,1,3.875,55.125,4,0,0,0,0,0,0,0,0,0,1.00990099,17,17,0,0,8964,1035,8993,1006,0.125,25.25,16.83333333,1,16.83333333,15.83333333,0,1,1,31.34645115,,,,,,,17,102,0,0,0,0,0,0,0,0,0,,,7225,289,289,289,289,289,289,289,289,289
3,2,4,2,4,35.5,3,0,0,0,0,0,0,0,0,1,5.183168317,87.25,-87.25,100,5.940594059,8996,1003,8992,1007,0,25.25,16.83333333,4.940594059,83.16666667,15.83333333,0,1,-99,23.50983837,,,,,,,12.75,76.5,0,0,0,0,0,0,0,0,0,,,4064.0625,162.5625,162.5625,162.5625,162.5625,162.5625,162.5625,162.5625,162.5625,162.5625
3,2,4,3,23.875,44.75,4,0,0,0,0,0,0,0,0,0,0.9504950495,16,16,1,0.05940594059,8998,1001,8993,1006,0.125,25.25,16.83333333,0.9405940594,15.83333333,15.83333333,1,1,0.5,31.34645115,,,,,,,17,102,0,0,0,0,0,0,0,0,0,,,7225,289,289,289,289,289,289,289,289,289
3,2,4,4,3.875,45.125,4,0,0,0,0,0,0,0,0,0,1.00990099,17,17,0,0,8988,1011,8986,1013,0.125,25.25,16.83333333,1,16.83333333,15.83333333,0,1,1,31.34645115,,,,,,,17,102,0,0,0,0,0,0,0,0,0,,,7225,289,289,289,289,289,289,289,289,289
3,3,4,1,10.66666667,52.41666667,4,0,0,0,0,0,0,0,0,0,102,17,17,0,0,8997,1002,8983,1016,0,0.25,0.1666666667,1,0.1666666667,0.1666666667,1,3,#DIV/0!,31.34645115,,,,,,,17,102,0,0,0,0,0,0,0,0,0,,,7225,289,289,289,289,289,289,289,289,289
3,3,4,2,4,55.875,4,0,0,0,0,0,0,0,0,0,96,16,16,1,6,8997,1002,8990,1009,0,0.25,0.1666666667,5,0.8333333333,0.1666666667,0,3,0.99,31.34645115,,,,,,,17,102,0,0,0,0,0,0,0,0,0,,,7225,289,289,289,289,289,289,289,289,289
3,3,4,3,10.66666667,32.41666667,4,0,0,0,0,0,0,0,0,0,102,17,17,0,0,8993,1006,8994,1005,0,0.25,0.1666666667,1,0.1666666667,0.1666666667,1,3,1,31.34645115,,,,,,,17,102,0,0,0,0,0,0,0,0,0,,,7225,289,289,289,289,289,289,289,289,289
3,3,4,4,10.66666667,42.16666667,4,0,0,0,0,0,0,0,0,0,102,17,17,0,0,8908,1091,8992,1007,0,0.25,0.1666666667,1,0.1666666667,0.1666666667,1,3,#DIV/0!,31.34645115,,,,,,,17,102,0,0,0,0,0,0,0,0,0,,,7225,289,289,289,289,289,289,289,289,289
3,4,4,1,10.66666667,37.29166667,4,0,0,0,0,0,0,0,0,0,102,17,17,0,0,8995,1004,8990,1009,0,0.25,0.1666666667,1,0.1666666667,0.1666666667,1,3,#DIV/0!,31.34645115,,,,,,,17,102,0,0,0,0,0,0,0,0,0,,,7225,289,289,289,289,289,289,289,289,289
3,4,4,2,10.66666667,57.04166667,4,0,0,0,0,0,0,0,0,0,102,17,17,0,0,8993,1006,8992,1007,0,0.25,0.1666666667,1,0.1666666667,0.1666666667,1,3,1,31.34645115,,,,,,,17,102,0,0,0,0,0,0,0,0,0,,,7225,289,289,289,289,289,289,289,289,289
3,4,4,3,4,30,4,0,0,0,0,0,0,0,0,0,96,16,16,1,6,8993,1006,8991,1008,0,0.25,0.1666666667,5,0.8333333333,0.1666666667,0,3,#DIV/0!,31.34645115,,,,,,,17,102,0,0,0,0,0,0,0,0,0,,,7225,289,289,289,289,289,289,289,289,289
3,4,4,4,10.66666667,56.54166667,4,0,0,0,0,0,0,0,0,0,102,17,17,0,0,8998,1001,8992,1007,0,0.25,0.1666666667,1,0.1666666667,0.1666666667,1,3,#DIV/0!,31.34645115,,,,,,,17,102,0,0,0,0,0,0,0,0,0,,,7225,289,289,289,289,289,289,289,289,289
3,1,5,1,4,29.375,4,0,0,0,0,0,0,0,0,0,48,16,16,1,3,8950,1049,8991,1008,0,0.5,0.3333333333,2,0.6666666667,0.3333333333,0,2,#DIV/0!,31.34645115,,,,,,,17,102,0,0,0,0,0,0,0,0,0,,,7225,289,289,289,289,289,289,289,289,289
3,1,5,2,14,79.5,4,0,0,0,0,0,0,0,0,0,51,17,17,0,0,8974,1025,8992,1007,0,0.5,0.3333333333,1,0.3333333333,0.3333333333,1,2,#DIV/0!,31.34645115,,,,,,,17,102,0,0,0,0,0,0,0,0,0,,,7225,289,289,289,289,289,289,289,289,289
3,1,5,3,14,49,4,0,0,0,0,0,0,0,0,0,51,17,17,0,0,8995,1004,8977,1022,0,0.5,0.3333333333,1,0.3333333333,0.3333333333,1,2,1,31.34645115,,,,,,,17,102,0,0,0,0,0,0,0,0,0,,,7225,289,289,289,289,289,289,289,289,289
3,1,5,4,4,59.375,4,0,0,0,0,0,0,0,0,0,48,16,16,1,3,8982,1017,8993,1006,0,0.5,0.3333333333,2,0.6666666667,0.3333333333,0,2,#DIV/0!,31.34645115,,,,,,,17,102,0,0,0,0,0,0,0,0,0,,,7225,289,289,289,289,289,289,289,289,289
3,2,5,1,14,69.125,4,0,0,0,0,0,0,0,0,0,10.66666667,16,16,1,0.6666666667,8976,1023,8991,1008,0,2.25,1.5,0.3333333333,0.5,0.5,1,2,0,31.34645115,,,,,,,17,102,0,0,0,0,0,0,0,0,0,,,7225,289,289,289,289,289,289,289,289,289
3,2,5,2,4,39.5,4,0,0,0,0,0,0,0,0,0,11.33333333,17,17,0,0,8921,1078,8991,1008,0,2.25,1.5,1,1.5,0.5,0,2,#DIV/0!,31.34645115,,,,,,,17,102,0,0,0,0,0,0,0,0,0,,,7225,289,289,289,289,289,289,289,289,289
3,2,5,3,14,58.75,4,0,0,0,0,0,0,0,0,0,10.66666667,16,16,1,0.6666666667,8999,1000,8987,1012,0,2.25,1.5,0.3333333333,0.5,0.5,1,2,#DIV/0!,31.34645115,,,,,,,17,102,0,0,0,0,0,0,0,0,0,,,7225,289,289,289,289,289,289,289,289,289
3,2,5,4,3.875,49,3,1,0,0,0,0,0,0,0,0,7.777777778,11.66666667,11.66666667,7,4.666666667,8868,1131,8921,1078,0.125,2.25,1.5,3.666666667,5.5,0.5,0,2,-6,25.32905666,,,,,,,18.66666667,76.5,35.5,0,0,0,0,0,0,0,0,,,3344.694444,283.3611111,348.4444444,348.4444444,348.4444444,348.4444444,348.4444444,348.4444444,348.4444444,348.4444444
3,3,5,1,9,61.41666667,4,0,0,0,0,0,0,0,0,0,#DIV/0!,17,17,0,#DIV/0!,8987,1012,8993,1006,0,0,0,#DIV/0!,0,0,1,4,1,31.34645115,,,,,,,17,102,0,0,0,0,0,0,0,0,0,,,7225,289,289,289,289,289,289,289,289,289
3,3,5,2,9,64.875,4,0,0,0,0,0,0,0,0,0,#DIV/0!,17,17,0,#DIV/0!,8996,1003,8994,1005,0,0,0,#DIV/0!,0,0,1,4,#DIV/0!,31.34645115,,,,,,,17,102,0,0,0,0,0,0,0,0,0,,,7225,289,289,289,289,289,289,289,289,289
3,3,5,3,9,41.41666667,4,0,0,0,0,0,0,0,0,0,#DIV/0!,17,17,0,#DIV/0!,8998,1001,8992,1007,0,0,0,#DIV/0!,0,0,1,4,1,31.34645115,,,,,,,17,102,0,0,0,0,0,0,0,0,0,,,7225,289,289,289,289,289,289,289,289,289
3,3,5,4,9,51.16666667,4,0,0,0,0,0,0,0,0,0,#DIV/0!,17,17,0,#DIV/0!,8994,1005,8995,1004,0,0,0,#DIV/0!,0,0,1,4,1,31.34645115,,,,,,,17,102,0,0,0,0,0,0,0,0,0,,,7225,289,289,289,289,289,289,289,289,289
3,4,5,1,9,46.29166667,4,0,0,0,0,0,0,0,0,0,#DIV/0!,17,17,0,#DIV/0!,8980,1019,8992,1007,0,0,0,#DIV/0!,0,0,1,4,#DIV/0!,31.34645115,,,,,,,17,102,0,0,0,0,0,0,0,0,0,,,7225,289,289,289,289,289,289,289,289,289
3,4,5,2,9,66.04166667,4,0,0,0,0,0,0,0,0,0,#DIV/0!,17,17,0,#DIV/0!,8997,1002,8991,1008,0,0,0,#DIV/0!,0,0,1,4,#DIV/0!,31.34645115,,,,,,,17,102,0,0,0,0,0,0,0,0,0,,,7225,289,289,289,289,289,289,289,289,289
3,4,5,3,9,39,4,0,0,0,0,0,0,0,0,0,#DIV/0!,17,17,0,#DIV/0!,8997,1002,8992,1007,0,0,0,#DIV/0!,0,0,1,4,#DIV/0!,31.34645115,,,,,,,17,102,0,0,0,0,0,0,0,0,0,,,7225,289,289,289,289,289,289,289,289,289
3,4,5,4,9,65.54166667,4,0,0,0,0,0,0,0,0,0,#DIV/0!,17,17,0,#DIV/0!,8998,1001,8987,1012,0,0,0,#DIV/0!,0,0,1,4,#DIV/0!,31.34645115,,,,,,,17,102,0,0,0,0,0,0,0,0,0,,,7225,289,289,289,289,289,289,289,289,289