Treatment,Session,Period,Subject,P1,P2,P3,P4,P5,P6,P7,P8,P9,P10,B1,B2,B3,B4,B5,B6,B7,B8,B9,B10, Profit , TotalProfit ,Guess1,FinalGuess, Average , TargetValue , Diff ,IsWinner,NumWinners,Players2,1,1,1,0,2,2,4,7,1,1,1,1,1,3,3,2,4,5,0,0,0,0,3, 2.95 , 17.95 ,50,50, 45.10 , 30.07 , 19.93 ,0,1,202,1,1,2,0,2,2,4,7,1,1,1,1,1,1,1,14,3,1,0,0,0,0,0, 2.53 , 17.53 ,32,32, 45.10 , 30.07 , 1.93 ,0,1,202,1,1,3,0,2,2,4,7,1,1,1,1,1,3,1,5,3,4,2,1,1,0,0, 2.92 , 17.92 ,23,23, 45.10 , 30.07 , 7.07 ,0,1,202,1,1,4,0,2,2,4,7,1,1,1,1,1,0,1,2,4,5,4,2,1,1,0, 22.96 , 37.96 ,31,31, 45.10 , 30.07 , 0.93 ,1,1,202,1,1,5,0,2,2,4,7,1,1,1,1,1,0,0,0,3,10,3,3,0,0,1, 2.93 , 17.93 ,75,75, 45.10 , 30.07 , 44.93 ,0,1,202,1,1,6,0,2,2,4,7,1,1,1,1,1,0,2,5,4,6,3,0,0,0,0, 2.96 , 17.96 ,100,100, 45.10 , 30.07 , 69.93 ,0,1,202,1,1,7,0,2,2,4,7,1,1,1,1,1,1,2,2,2,2,2,2,3,2,2, 2.91 , 17.91 ,54,54, 45.10 , 30.07 , 23.93 ,0,1,202,1,1,8,0,2,2,4,7,1,1,1,1,1,0,0,0,0,4,4,7,5,0,0, 2.76 , 17.76 ,45,45, 45.10 , 30.07 , 14.93 ,0,1,202,1,1,9,0,2,2,4,7,1,1,1,1,1,2,2,2,5,3,3,1,1,1,0, 2.94 , 17.94 ,42,42, 45.10 , 30.07 , 11.93 ,0,1,202,1,1,10,0,2,2,4,7,1,1,1,1,1,0,0,2,2,1,2,2,7,2,2, 2.79 , 17.79 ,70,70, 45.10 , 30.07 , 39.93 ,0,1,202,1,1,11,0,2,2,4,7,1,1,1,1,1,0,3,7,1,1,3,0,5,0,0, 2.77 , 17.77 ,17,17, 45.10 , 30.07 , 13.07 ,0,1,202,1,1,12,0,2,2,4,7,1,1,1,1,1,1,1,2,2,4,5,2,2,1,0, 2.92 , 17.92 ,85,85, 45.10 , 30.07 , 54.93 ,0,1,202,1,1,13,0,2,2,4,7,1,1,1,1,1,0,2,10,2,2,2,2,0,0,0, 2.76 , 17.76 ,43,43, 45.10 , 30.07 , 12.93 ,0,1,202,1,1,14,0,2,2,4,7,1,1,1,1,1,0,2,1,3,5,4,3,1,1,0, 2.95 , 17.95 ,43,43, 45.10 , 30.07 , 12.93 ,0,1,202,1,1,15,0,2,2,4,7,1,1,1,1,1,0,1,1,2,4,4,3,2,2,1, 2.93 , 17.93 ,43,43, 45.10 , 30.07 , 12.93 ,0,1,202,1,1,16,0,2,2,4,7,1,1,1,1,1,2,4,5,4,4,1,0,0,0,0, 2.93 , 17.93 ,17,17, 45.10 , 30.07 , 13.07 ,0,1,202,1,1,17,0,2,2,4,7,1,1,1,1,1,0,0,0,8,7,4,1,0,0,0, 2.91 , 17.91 ,35,35, 45.10 , 30.07 , 4.93 ,0,1,202,1,1,18,0,2,2,4,7,1,1,1,1,1,0,0,5,8,7,0,0,0,0,0, 2.92 , 17.92 ,23,23, 45.10 , 30.07 , 7.07 ,0,1,202,1,1,19,0,2,2,4,7,1,1,1,1,1,0,2,3,2,2,1,3,2,3,2, 2.90 , 17.90 ,32,32, 45.10 , 30.07 , 1.93 ,0,1,202,1,1,20,0,2,2,4,7,1,1,1,1,1,0,0,2,4,8,2,2,2,0,0, 2.98 , 17.98 ,42,42, 45.10 , 30.07 , 11.93 ,0,1,202,1,2,1,2,3,5,5,4,0,1,0,0,0,1,1,2,5,5,0,0,1,2,3, 22.93 , 40.87 ,20,20, 31.85 , 21.23 , 1.23 ,1,1,202,1,2,2,2,3,5,5,4,0,1,0,0,0,1,0,6,6,4,1,1,1,0,0, 2.97 , 20.50 ,41,41, 31.85 , 21.23 , 19.77 ,0,1,202,1,2,3,2,3,5,5,4,0,1,0,0,0,4,4,8,1,0,0,0,1,1,1, 2.88 , 20.80 ,18,18, 31.85 , 21.23 , 3.23 ,0,1,202,1,2,4,2,3,5,5,4,0,1,0,0,0,0,0,3,4,4,4,4,1,0,0, 2.89 , 40.85 ,45,45, 31.85 , 21.23 , 23.77 ,0,1,202,1,2,5,2,3,5,5,4,0,1,0,0,0,0,0,0,0,20,0,0,0,0,0, 2.20 , 20.13 ,50,50, 31.85 , 21.23 , 28.77 ,0,1,202,1,2,6,2,3,5,5,4,0,1,0,0,0,0,0,5,5,5,5,0,0,0,0, 2.90 , 20.86 ,40,40, 31.85 , 21.23 , 18.77 ,0,1,202,1,2,7,2,3,5,5,4,0,1,0,0,0,0,2,3,3,2,3,1,2,2,2, 2.91 , 20.81 ,45,45, 31.85 , 21.23 , 23.77 ,0,1,202,1,2,8,2,3,5,5,4,0,1,0,0,0,0,10,4,4,2,0,0,0,0,0, 2.85 , 20.61 ,13,13, 31.85 , 21.23 , 8.23 ,0,1,202,1,2,9,2,3,5,5,4,0,1,0,0,0,3,6,6,3,2,0,0,0,0,0, 2.95 , 20.89 ,9,9, 31.85 , 21.23 , 12.23 ,0,1,202,1,2,10,2,3,5,5,4,0,1,0,0,0,0,0,0,10,10,0,0,0,0,0, 2.75 , 20.54 ,40,40, 31.85 , 21.23 , 18.77 ,0,1,202,1,2,11,2,3,5,5,4,0,1,0,0,0,0,0,2,4,7,5,1,1,0,0, 2.86 , 20.62 ,28,28, 31.85 , 21.23 , 6.77 ,0,1,202,1,2,12,2,3,5,5,4,0,1,0,0,0,1,1,2,4,5,2,2,1,1,1, 2.94 , 20.86 ,70,70, 31.85 , 21.23 , 48.77 ,0,1,202,1,2,13,2,3,5,5,4,0,1,0,0,0,0,0,2,4,8,4,2,0,0,0, 2.86 , 20.62 ,35,35, 31.85 , 21.23 , 13.77 ,0,1,202,1,2,14,2,3,5,5,4,0,1,0,0,0,0,2,5,7,3,2,1,0,0,0, 2.97 , 20.92 ,27,27, 31.85 , 21.23 , 5.77 ,0,1,202,1,2,15,2,3,5,5,4,0,1,0,0,0,0,1,4,4,6,3,2,0,0,0, 2.94 , 20.87 ,35,35, 31.85 , 21.23 , 13.77 ,0,1,202,1,2,16,2,3,5,5,4,0,1,0,0,0,2,5,8,5,0,0,0,0,0,0, 2.93 , 20.85 ,9,9, 31.85 , 21.23 , 12.23 ,0,1,202,1,2,17,2,3,5,5,4,0,1,0,0,0,0,2,11,5,2,0,0,0,0,0, 2.89 , 20.80 ,25,25, 31.85 , 21.23 , 3.77 ,0,1,202,1,2,18,2,3,5,5,4,0,1,0,0,0,0,3,10,7,0,0,0,0,0,0, 2.88 , 20.79 ,23,23, 31.85 , 21.23 , 1.77 ,0,1,202,1,2,19,2,3,5,5,4,0,1,0,0,0,0,3,7,8,1,1,0,0,0,0, 2.93 , 20.83 ,25,25, 31.85 , 21.23 , 3.77 ,0,1,202,1,2,20,2,3,5,5,4,0,1,0,0,0,1,1,1,5,6,5,1,0,0,0, 2.88 , 20.85 ,39,39, 31.85 , 21.23 , 17.77 ,0,1,202,1,3,1,3,5,6,4,0,0,0,1,1,0,3,5,5,5,0,0,0,1,1,0, 3.00 , 43.87 ,10,10, 28.30 , 18.87 , 8.87 ,0,1,202,1,3,2,3,5,6,4,0,0,0,1,1,0,0,2,8,3,2,1,1,1,1,1, 2.93 , 23.42 ,31,31, 28.30 , 18.87 , 12.13 ,0,1,202,1,3,3,3,5,6,4,0,0,0,1,1,0,3,3,5,5,2,2,0,0,0,0, 2.96 , 23.76 ,26,26, 28.30 , 18.87 , 7.13 ,0,1,202,1,3,4,3,5,6,4,0,0,0,1,1,0,0,2,4,4,4,4,2,0,0,0, 2.85 , 43.70 ,25,25, 28.30 , 18.87 , 6.13 ,0,1,202,1,3,5,3,5,6,4,0,0,0,1,1,0,10,6,4,0,0,0,0,0,0,0, 2.82 , 22.95 ,5,5, 28.30 , 18.87 , 13.87 ,0,1,202,1,3,6,3,5,6,4,0,0,0,1,1,0,0,0,5,7,5,3,0,0,0,0, 2.80 , 23.66 ,30,30, 28.30 , 18.87 , 11.13 ,0,1,202,1,3,7,3,5,6,4,0,0,0,1,1,0,2,3,5,4,2,2,1,1,0,0, 2.96 , 23.77 ,33,33, 28.30 , 18.87 , 14.13 ,0,1,202,1,3,8,3,5,6,4,0,0,0,1,1,0,2,11,5,2,0,0,0,0,0,0, 2.89 , 23.50 ,13,13, 28.30 , 18.87 , 5.87 ,0,1,202,1,3,9,3,5,6,4,0,0,0,1,1,0,1,5,5,5,3,1,0,0,0,0, 22.96 , 43.84 ,18,18, 28.30 , 18.87 , 0.87 ,1,1,202,1,3,10,3,5,6,4,0,0,0,1,1,0,1,1,8,7,1,1,1,0,0,0, 2.91 , 23.45 ,30,30, 28.30 , 18.87 , 11.13 ,0,1,202,1,3,11,3,5,6,4,0,0,0,1,1,0,2,1,1,5,0,5,2,4,0,0, 2.80 , 23.42 ,35,35, 28.30 , 18.87 , 16.13 ,0,1,202,1,3,12,3,5,6,4,0,0,0,1,1,0,0,0,5,5,5,3,1,1,0,0, 2.82 , 23.68 ,90,90, 28.30 , 18.87 , 71.13 ,0,1,202,1,3,13,3,5,6,4,0,0,0,1,1,0,0,1,2,6,6,2,1,1,1,0, 2.79 , 23.40 ,30,30, 28.30 , 18.87 , 11.13 ,0,1,202,1,3,14,3,5,6,4,0,0,0,1,1,0,4,4,5,2,1,1,1,2,0,0, 2.97 , 23.89 ,80,80, 28.30 , 18.87 , 61.13 ,0,1,202,1,3,15,3,5,6,4,0,0,0,1,1,0,6,6,4,2,2,0,0,0,0,0, 2.94 , 23.81 ,10,10, 28.30 , 18.87 , 8.87 ,0,1,202,1,3,16,3,5,6,4,0,0,0,1,1,0,4,5,9,2,0,0,0,0,0,0, 2.96 , 23.81 ,16,16, 28.30 , 18.87 , 2.87 ,0,1,202,1,3,17,3,5,6,4,0,0,0,1,1,0,1,16,3,0,0,0,0,0,0,0, 2.62 , 23.42 ,12,12, 28.30 , 18.87 , 6.87 ,0,1,202,1,3,18,3,5,6,4,0,0,0,1,1,0,3,7,7,2,1,0,0,0,0,0, 2.97 , 23.76 ,11,11, 28.30 , 18.87 , 7.87 ,0,1,202,1,3,19,3,5,6,4,0,0,0,1,1,0,2,4,4,9,1,0,0,0,0,0, 2.92 , 23.75 ,28,28, 28.30 , 18.87 , 9.13 ,0,1,202,1,3,20,3,5,6,4,0,0,0,1,1,0,1,2,5,6,5,1,0,0,0,0, 2.89 , 23.74 ,33,33, 28.30 , 18.87 , 14.13 ,0,1,202,1,4,1,2,11,4,3,0,0,0,0,0,0,5,7,4,2,0,0,0,0,1,1, 2.93 , 46.80 ,15,15, 18.95 , 12.63 , 2.37 ,0,2,202,1,4,2,2,11,4,3,0,0,0,0,0,0,0,5,6,4,2,2,1,0,0,0, 2.87 , 26.29 ,21,21, 18.95 , 12.63 , 8.37 ,0,2,202,1,4,3,2,11,4,3,0,0,0,0,0,0,4,5,4,4,1,2,0,0,0,0, 2.89 , 26.64 ,15,15, 18.95 , 12.63 , 2.37 ,0,2,202,1,4,4,2,11,4,3,0,0,0,0,0,0,3,3,3,3,3,1,1,1,1,1, 2.80 , 46.50 ,14,14, 18.95 , 12.63 , 1.37 ,0,2,202,1,4,5,2,11,4,3,0,0,0,0,0,0,1,4,5,6,3,1,0,0,0,0, 2.83 , 25.78 ,35,35, 18.95 , 12.63 , 22.37 ,0,2,202,1,4,6,2,11,4,3,0,0,0,0,0,0,3,5,5,5,2,0,0,0,0,0, 2.89 , 26.54 ,20,20, 18.95 , 12.63 , 7.37 ,0,2,202,1,4,7,2,11,4,3,0,0,0,0,0,0,0,4,6,3,2,2,2,1,0,0, 2.83 , 26.60 ,26,26, 18.95 , 12.63 , 13.37 ,0,2,202,1,4,8,2,11,4,3,0,0,0,0,0,0,2,8,8,2,0,0,0,0,0,0, 12.94 , 36.44 ,13,13, 18.95 , 12.63 , 0.37 ,1,2,202,1,4,9,2,11,4,3,0,0,0,0,0,0,4,8,5,2,1,0,0,0,0,0, 2.96 , 46.80 ,16,16, 18.95 , 12.63 , 3.37 ,0,2,202,1,4,10,2,11,4,3,0,0,0,0,0,0,2,8,5,3,2,0,0,0,0,0, 2.97 , 26.41 ,10,10, 18.95 , 12.63 , 2.63 ,0,2,202,1,4,11,2,11,4,3,0,0,0,0,0,0,1,2,1,0,0,3,6,5,1,1, 2.57 , 25.99 ,31,31, 18.95 , 12.63 , 18.37 ,0,2,202,1,4,12,2,11,4,3,0,0,0,0,0,0,2,6,5,5,1,1,0,0,0,0, 2.92 , 26.60 ,17,17, 18.95 , 12.63 , 4.37 ,0,2,202,1,4,13,2,11,4,3,0,0,0,0,0,0,1,2,6,2,2,2,2,1,1,1, 2.75 , 26.15 ,16,16, 18.95 , 12.63 , 3.37 ,0,2,202,1,4,14,2,11,4,3,0,0,0,0,0,0,2,3,4,3,3,2,1,1,0,1, 2.80 , 26.69 ,32,32, 18.95 , 12.63 , 19.37 ,0,2,202,1,4,15,2,11,4,3,0,0,0,0,0,0,3,7,5,2,2,0,1,0,0,0, 2.94 , 26.75 ,6,6, 18.95 , 12.63 , 6.63 ,0,2,202,1,4,16,2,11,4,3,0,0,0,0,0,0,4,13,2,1,0,0,0,0,0,0, 12.96 , 36.77 ,13,13, 18.95 , 12.63 , 0.37 ,1,2,202,1,4,17,2,11,4,3,0,0,0,0,0,0,1,4,4,6,3,0,1,1,0,0, 2.83 , 26.24 ,23,23, 18.95 , 12.63 , 10.37 ,0,2,202,1,4,18,2,11,4,3,0,0,0,0,0,0,3,8,4,3,0,0,1,1,0,0, 2.97 , 26.73 ,14,14, 18.95 , 12.63 , 1.37 ,0,2,202,1,4,19,2,11,4,3,0,0,0,0,0,0,3,5,10,1,1,0,0,0,0,0, 2.81 , 26.55 ,15,15, 18.95 , 12.63 , 2.37 ,0,2,202,1,4,20,2,11,4,3,0,0,0,0,0,0,2,3,5,4,2,1,1,1,1,0, 2.82 , 26.55 ,27,27, 18.95 , 12.63 , 14.37 ,0,2,202,1,5,1,12,7,0,1,0,0,0,0,0,0,7,7,5,0,0,0,0,0,1,0, 2.87 , 49.67 ,10,10, 12.35 , 8.23 , 1.77 ,0,2,202,1,5,2,12,7,0,1,0,0,0,0,0,0,5,6,4,3,1,0,1,0,0,0, 2.82 , 29.11 ,11,11, 12.35 , 8.23 , 2.77 ,0,2,202,1,5,3,12,7,0,1,0,0,0,0,0,0,6,10,3,1,0,0,0,0,0,0, 2.87 , 29.51 ,10,10, 12.35 , 8.23 , 1.77 ,0,2,202,1,5,4,12,7,0,1,0,0,0,0,0,0,5,12,3,0,0,0,0,0,0,0, 2.79 , 49.29 ,9,9, 12.35 , 8.23 , 0.77 ,0,2,202,1,5,5,12,7,0,1,0,0,0,0,0,0,0,5,10,3,2,0,0,0,0,0, 2.36 , 28.14 ,35,35, 12.35 , 8.23 , 26.77 ,0,2,202,1,5,6,12,7,0,1,0,0,0,0,0,0,9,9,2,0,0,0,0,0,0,0, 2.96 , 29.50 ,9,9, 12.35 , 8.23 , 0.77 ,0,2,202,1,5,7,12,7,0,1,0,0,0,0,0,0,2,4,8,4,1,1,0,0,0,0, 2.54 , 29.14 ,16,16, 12.35 , 8.23 , 7.77 ,0,2,202,1,5,8,12,7,0,1,0,0,0,0,0,0,3,13,4,0,0,0,0,0,0,0, 2.67 , 39.10 ,13,13, 12.35 , 8.23 , 4.77 ,0,2,202,1,5,9,12,7,0,1,0,0,0,0,0,0,6,10,2,2,0,0,0,0,0,0, 2.88 , 49.68 ,9,9, 12.35 , 8.23 , 0.77 ,0,2,202,1,5,10,12,7,0,1,0,0,0,0,0,0,2,10,8,0,0,0,0,0,0,0, 2.57 , 28.98 ,20,20, 12.35 , 8.23 , 11.77 ,0,2,202,1,5,11,12,7,0,1,0,0,0,0,0,0,1,5,4,2,0,0,3,4,1,0, 2.58 , 28.57 ,15,15, 12.35 , 8.23 , 6.77 ,0,2,202,1,5,12,12,7,0,1,0,0,0,0,0,0,15,4,1,0,0,0,0,0,0,0, 12.95 , 39.55 ,8,8, 12.35 , 8.23 , 0.23 ,1,2,202,1,5,13,12,7,0,1,0,0,0,0,0,0,4,9,4,2,1,0,0,0,0,0, 2.79 , 28.93 ,10,10, 12.35 , 8.23 , 1.77 ,0,2,202,1,5,14,12,7,0,1,0,0,0,0,0,0,6,10,2,1,0,0,0,1,0,0, 2.88 , 29.56 ,9,9, 12.35 , 8.23 , 0.77 ,0,2,202,1,5,15,12,7,0,1,0,0,0,0,0,0,6,11,2,0,0,0,1,0,0,0, 2.86 , 29.60 ,9,9, 12.35 , 8.23 , 0.77 ,0,2,202,1,5,16,12,7,0,1,0,0,0,0,0,0,16,3,1,0,0,0,0,0,0,0, 12.92 , 49.69 ,8,8, 12.35 , 8.23 , 0.23 ,1,2,202,1,5,17,12,7,0,1,0,0,0,0,0,0,4,13,2,1,0,0,0,0,0,0, 2.74 , 28.98 ,10,10, 12.35 , 8.23 , 1.77 ,0,2,202,1,5,18,12,7,0,1,0,0,0,0,0,0,7,12,1,0,0,0,0,0,0,0, 2.87 , 29.60 ,11,11, 12.35 , 8.23 , 2.77 ,0,2,202,1,5,19,12,7,0,1,0,0,0,0,0,0,10,8,1,1,0,0,0,0,0,0, 2.99 , 29.54 ,6,6, 12.35 , 8.23 , 2.23 ,0,2,202,1,5,20,12,7,0,1,0,0,0,0,0,0,3,6,5,3,2,1,0,0,0,0, 2.71 , 29.26 ,19,19, 12.35 , 8.23 , 10.77 ,0,2,202,2,1,1,4,4,0,1,3,2,1,2,0,0,1,1,1,1,1,2,5,1,1,3, 2.83 , 17.83 ,66,66, 35.18 , 23.45 , 42.55 ,0,2,172,2,1,2,4,4,0,1,3,2,1,2,0,0,10,0,0,0,0,0,3,4,0,0, 2.74 , 17.74 ,0,0, 35.18 , 23.45 , 23.45 ,0,2,172,2,1,3,4,4,0,1,3,2,1,2,0,0,0,0,0,3,4,5,5,0,0,0, 2.77 , 17.77 ,41,41, 35.18 , 23.45 , 17.55 ,0,2,172,2,1,4,4,4,0,1,3,2,1,2,0,0,0,1,0,3,0,2,1,7,2,1, 2.76 , 17.76 ,78,78, 35.18 , 23.45 , 54.55 ,0,2,172,2,1,5,4,4,0,1,3,2,1,2,0,0,3,5,6,2,1,0,0,0,0,0, 12.82 , 27.82 ,17,17, 35.18 , 23.45 , 6.45 ,1,2,172,2,1,6,4,4,0,1,3,2,1,2,0,0,0,0,0,4,5,7,1,0,0,0, 2.74 , 17.74 ,55,55, 35.18 , 23.45 , 31.55 ,0,2,172,2,1,7,4,4,0,1,3,2,1,2,0,0,1,1,3,5,5,2,0,0,0,0, 2.82 , 17.82 ,8,8, 35.18 , 23.45 , 15.45 ,0,2,172,2,1,8,4,4,0,1,3,2,1,2,0,0,1,2,2,3,2,3,1,1,1,1, 2.91 , 17.91 ,50,50, 35.18 , 23.45 , 26.55 ,0,2,172,2,1,9,4,4,0,1,3,2,1,2,0,0,0,1,2,2,2,2,2,2,2,2, 2.86 , 17.86 ,60,60, 35.18 , 23.45 , 36.55 ,0,2,172,2,1,10,4,4,0,1,3,2,1,2,0,0,3,3,5,3,1,1,1,0,0,0, 2.86 , 17.86 ,15,15, 35.18 , 23.45 , 8.45 ,0,2,172,2,1,11,4,4,0,1,3,2,1,2,0,0,0,0,0,1,2,1,4,6,2,1, 2.78 , 17.78 ,80,80, 35.18 , 23.45 , 56.55 ,0,2,172,2,1,12,4,4,0,1,3,2,1,2,0,0,0,0,1,3,3,4,6,0,0,0, 2.76 , 17.76 ,37,37, 35.18 , 23.45 , 13.55 ,0,2,172,2,1,13,4,4,0,1,3,2,1,2,0,0,1,7,3,1,1,3,1,0,0,0, 12.88 , 27.88 ,17,17, 35.18 , 23.45 , 6.45 ,1,2,172,2,1,14,4,4,0,1,3,2,1,2,0,0,0,0,2,4,5,5,1,0,0,0, 2.79 , 17.79 ,43,43, 35.18 , 23.45 , 19.55 ,0,2,172,2,1,15,4,4,0,1,3,2,1,2,0,0,3,4,4,3,2,1,0,0,0,0, 2.90 , 17.90 ,9,9, 35.18 , 23.45 , 14.45 ,0,2,172,2,1,16,4,4,0,1,3,2,1,2,0,0,1,3,1,2,5,2,0,2,1,0, 2.94 , 17.94 ,9,9, 35.18 , 23.45 , 14.45 ,0,2,172,2,1,17,4,4,0,1,3,2,1,2,0,0,1,3,6,6,1,0,0,0,0,0, 2.71 , 17.71 ,13,13, 35.18 , 23.45 , 10.45 ,0,2,172,2,2,1,3,5,2,5,0,0,1,1,0,0,2,1,1,1,3,3,2,1,1,2, 2.80 , 20.63 ,66,66, 27.53 , 18.35 , 47.65 ,0,1,172,2,2,2,3,5,2,5,0,0,1,1,0,0,0,4,8,4,0,1,0,0,0,0, 2.83 , 20.57 ,25,25, 27.53 , 18.35 , 6.65 ,0,1,172,2,2,3,3,5,2,5,0,0,1,1,0,0,0,0,3,4,5,5,0,0,0,0, 2.70 , 20.47 ,31,31, 27.53 , 18.35 , 12.65 ,0,1,172,2,2,4,3,5,2,5,0,0,1,1,0,0,0,2,3,3,3,3,1,2,0,0, 2.85 , 20.62 ,78,78, 27.53 , 18.35 , 59.65 ,0,1,172,2,2,5,3,5,2,5,0,0,1,1,0,0,3,7,5,2,0,0,0,0,0,0, 2.92 , 30.74 ,13,13, 27.53 , 18.35 , 5.35 ,0,1,172,2,2,6,3,5,2,5,0,0,1,1,0,0,1,0,0,7,5,4,0,0,0,0, 2.72 , 20.47 ,38,38, 27.53 , 18.35 , 19.65 ,0,1,172,2,2,7,3,5,2,5,0,0,1,1,0,0,7,7,3,0,0,0,0,0,0,0, 2.83 , 20.65 ,6,6, 27.53 , 18.35 , 12.35 ,0,1,172,2,2,8,3,5,2,5,0,0,1,1,0,0,3,6,5,2,1,0,0,0,0,0, 2.92 , 20.83 ,16,16, 27.53 , 18.35 , 2.35 ,0,1,172,2,2,9,3,5,2,5,0,0,1,1,0,0,4,4,2,2,2,1,1,1,0,0, 2.94 , 20.81 ,25,25, 27.53 , 18.35 , 6.65 ,0,1,172,2,2,10,3,5,2,5,0,0,1,1,0,0,3,4,4,3,3,0,0,0,0,0, 2.93 , 20.79 ,10,10, 27.53 , 18.35 , 8.35 ,0,1,172,2,2,11,3,5,2,5,0,0,1,1,0,0,1,1,6,6,2,1,0,0,0,0, 2.85 , 20.63 ,40,40, 27.53 , 18.35 , 21.65 ,0,1,172,2,2,12,3,5,2,5,0,0,1,1,0,0,3,5,5,3,1,0,0,0,0,0, 2.94 , 20.70 ,15,15, 27.53 , 18.35 , 3.35 ,0,1,172,2,2,13,3,5,2,5,0,0,1,1,0,0,1,4,5,3,2,1,1,0,0,0, 22.92 , 50.79 ,17,17, 27.53 , 18.35 , 1.35 ,1,1,172,2,2,14,3,5,2,5,0,0,1,1,0,0,2,3,4,4,3,1,0,0,0,0, 2.92 , 20.71 ,31,31, 27.53 , 18.35 , 12.65 ,0,1,172,2,2,15,3,5,2,5,0,0,1,1,0,0,6,6,5,0,0,0,0,0,0,0, 2.84 , 20.74 ,9,9, 27.53 , 18.35 , 9.35 ,0,1,172,2,2,16,3,5,2,5,0,0,1,1,0,0,3,2,0,8,1,1,1,1,0,0, 2.92 , 20.85 ,35,35, 27.53 , 18.35 , 16.65 ,0,1,172,2,2,17,3,5,2,5,0,0,1,1,0,0,0,2,12,3,0,0,0,0,0,0, 2.57 , 20.28 ,13,13, 27.53 , 18.35 , 5.35 ,0,1,172,2,3,1,0,14,2,1,0,0,0,0,0,0,1,3,2,2,2,2,2,1,1,1, 2.52 , 23.15 ,20,20, 17.35 , 11.57 , 8.43 ,0,1,172,2,3,2,0,14,2,1,0,0,0,0,0,0,2,2,0,0,0,4,4,4,1,0, 2.30 , 22.87 ,14,14, 17.35 , 11.57 , 2.43 ,0,1,172,2,3,3,0,14,2,1,0,0,0,0,0,0,0,5,3,3,1,5,0,0,0,0, 2.61 , 23.08 ,21,21, 17.35 , 11.57 , 9.43 ,0,1,172,2,3,4,0,14,2,1,0,0,0,0,0,0,5,4,1,4,2,1,0,0,0,0, 2.52 , 23.13 ,39,39, 17.35 , 11.57 , 27.43 ,0,1,172,2,3,5,0,14,2,1,0,0,0,0,0,0,2,9,6,0,0,0,0,0,0,0, 2.84 , 33.58 ,15,15, 17.35 , 11.57 , 3.43 ,0,1,172,2,3,6,0,14,2,1,0,0,0,0,0,0,2,10,4,1,0,0,0,0,0,0, 2.92 , 23.38 ,15,15, 17.35 , 11.57 , 3.43 ,0,1,172,2,3,7,0,14,2,1,0,0,0,0,0,0,5,10,2,0,0,0,0,0,0,0, 2.85 , 23.51 ,13,13, 17.35 , 11.57 , 1.43 ,0,1,172,2,3,8,0,14,2,1,0,0,0,0,0,0,1,6,6,3,1,0,0,0,0,0, 2.70 , 23.54 ,14,14, 17.35 , 11.57 , 2.43 ,0,1,172,2,3,9,0,14,2,1,0,0,0,0,0,0,4,4,4,2,1,1,1,0,0,0, 2.57 , 23.38 ,30,30, 17.35 , 11.57 , 18.43 ,0,1,172,2,3,10,0,14,2,1,0,0,0,0,0,0,4,8,3,2,0,0,0,0,0,0, 22.81 , 43.61 ,12,12, 17.35 , 11.57 , 0.43 ,1,1,172,2,3,11,0,14,2,1,0,0,0,0,0,0,3,8,3,3,0,0,0,0,0,0, 2.83 , 23.45 ,16,16, 17.35 , 11.57 , 4.43 ,0,1,172,2,3,12,0,14,2,1,0,0,0,0,0,0,3,14,0,0,0,0,0,0,0,0, 2.95 , 23.65 ,13,13, 17.35 , 11.57 , 1.43 ,0,1,172,2,3,13,0,14,2,1,0,0,0,0,0,0,3,5,5,3,1,0,0,0,0,0, 2.64 , 53.43 ,11,11, 17.35 , 11.57 , 0.57 ,0,1,172,2,3,14,0,14,2,1,0,0,0,0,0,0,4,6,3,2,0,1,1,0,0,0, 2.71 , 23.42 ,17,17, 17.35 , 11.57 , 5.43 ,0,1,172,2,3,15,0,14,2,1,0,0,0,0,0,0,6,6,5,0,0,0,0,0,0,0, 2.62 , 23.36 ,13,13, 17.35 , 11.57 , 1.43 ,0,1,172,2,3,16,0,14,2,1,0,0,0,0,0,0,3,6,4,2,1,1,0,0,0,0, 2.72 , 23.58 ,19,19, 17.35 , 11.57 , 7.43 ,0,1,172,2,3,17,0,14,2,1,0,0,0,0,0,0,3,8,5,1,0,0,0,0,0,0, 2.81 , 23.09 ,13,13, 17.35 , 11.57 , 1.43 ,0,1,172,2,4,1,10,4,2,0,0,0,1,0,0,0,7,5,5,0,0,0,0,0,0,0, 2.93 , 26.08 ,8,8, 14.82 , 9.88 , 1.88 ,0,1,172,2,4,2,10,4,2,0,0,0,1,0,0,0,12,1,0,1,1,0,2,0,0,0, 2.93 , 25.80 ,65,65, 14.82 , 9.88 , 55.12 ,0,1,172,2,4,3,10,4,2,0,0,0,1,0,0,0,0,1,14,2,0,0,0,0,0,0, 2.11 , 25.19 ,26,26, 14.82 , 9.88 , 16.12 ,0,1,172,2,4,4,10,4,2,0,0,0,1,0,0,0,2,10,4,1,0,0,0,0,0,0, 2.63 , 25.77 ,30,30, 14.82 , 9.88 , 20.12 ,0,1,172,2,4,5,10,4,2,0,0,0,1,0,0,0,4,13,0,0,0,0,0,0,0,0, 2.58 , 36.16 ,8,8, 14.82 , 9.88 , 1.88 ,0,1,172,2,4,6,10,4,2,0,0,0,1,0,0,0,2,12,3,0,0,0,0,0,0,0, 2.55 , 25.93 ,13,13, 14.82 , 9.88 , 3.12 ,0,1,172,2,4,7,10,4,2,0,0,0,1,0,0,0,13,4,0,0,0,0,0,0,0,0, 2.95 , 26.46 ,5,5, 14.82 , 9.88 , 4.88 ,0,1,172,2,4,8,10,4,2,0,0,0,1,0,0,0,7,7,2,1,0,0,0,0,0,0, 2.93 , 26.47 ,7,7, 14.82 , 9.88 , 2.88 ,0,1,172,2,4,9,10,4,2,0,0,0,1,0,0,0,2,12,2,1,0,0,0,0,0,0, 22.55 , 45.93 ,10,10, 14.82 , 9.88 , 0.12 ,1,1,172,2,4,10,10,4,2,0,0,0,1,0,0,0,9,8,0,0,0,0,0,0,0,0, 2.92 , 46.53 ,7,7, 14.82 , 9.88 , 2.88 ,0,1,172,2,4,11,10,4,2,0,0,0,1,0,0,0,14,2,1,0,0,0,0,0,0,0, 2.92 , 26.38 ,8,8, 14.82 , 9.88 , 1.88 ,0,1,172,2,4,12,10,4,2,0,0,0,1,0,0,0,0,16,1,0,0,0,0,0,0,0, 2.15 , 25.80 ,16,16, 14.82 , 9.88 , 6.12 ,0,1,172,2,4,13,10,4,2,0,0,0,1,0,0,0,6,10,1,0,0,0,0,0,0,0, 2.81 , 56.25 ,9,9, 14.82 , 9.88 , 0.88 ,0,1,172,2,4,14,10,4,2,0,0,0,1,0,0,0,3,10,4,0,0,0,0,0,0,0, 2.69 , 26.11 ,13,13, 14.82 , 9.88 , 3.12 ,0,1,172,2,4,15,10,4,2,0,0,0,1,0,0,0,9,8,0,0,0,0,0,0,0,0, 2.92 , 26.29 ,9,9, 14.82 , 9.88 , 0.88 ,0,1,172,2,4,16,10,4,2,0,0,0,1,0,0,0,5,12,0,0,0,0,0,0,0,0, 2.67 , 26.25 ,11,11, 14.82 , 9.88 , 1.12 ,0,1,172,2,4,17,10,4,2,0,0,0,1,0,0,0,5,12,0,0,0,0,0,0,0,0, 2.67 , 25.77 ,7,7, 14.82 , 9.88 , 2.88 ,0,1,172,2,5,1,15,2,0,0,0,0,0,0,0,0,10,5,2,0,0,0,0,0,0,0, 2.87 , 28.95 ,7,7, 7.18 , 4.78 , 2.22 ,0,2,172,2,5,2,15,2,0,0,0,0,0,0,0,0,15,0,0,0,0,0,0,1,1,0, 2.98 , 28.78 ,7,7, 7.18 , 4.78 , 2.22 ,0,2,172,2,5,3,15,2,0,0,0,0,0,0,0,0,3,5,6,3,0,0,0,0,0,0, 2.31 , 27.50 ,11,11, 7.18 , 4.78 , 6.22 ,0,2,172,2,5,4,15,2,0,0,0,0,0,0,0,0,9,6,2,0,0,0,0,0,0,0, 2.81 , 28.57 ,7,7, 7.18 , 4.78 , 2.22 ,0,2,172,2,5,5,15,2,0,0,0,0,0,0,0,0,15,1,0,0,1,0,0,0,0,0, 12.99 , 49.15 ,4,4, 7.18 , 4.78 , 0.78 ,1,2,172,2,5,6,15,2,0,0,0,0,0,0,0,0,8,7,2,0,0,0,0,0,0,0, 2.73 , 28.66 ,11,11, 7.18 , 4.78 , 6.22 ,0,2,172,2,5,7,15,2,0,0,0,0,0,0,0,0,15,2,0,0,0,0,0,0,0,0, 3.00 , 29.46 ,7,7, 7.18 , 4.78 , 2.22 ,0,2,172,2,5,8,15,2,0,0,0,0,0,0,0,0,14,3,0,0,0,0,0,0,0,0, 2.99 , 29.46 ,6,6, 7.18 , 4.78 , 1.22 ,0,2,172,2,5,9,15,2,0,0,0,0,0,0,0,0,9,4,2,0,0,1,0,1,0,0, 2.84 , 48.77 ,6,6, 7.18 , 4.78 , 1.22 ,0,2,172,2,5,10,15,2,0,0,0,0,0,0,0,0,14,3,0,0,0,0,0,0,0,0, 2.99 , 49.52 ,7,7, 7.18 , 4.78 , 2.22 ,0,2,172,2,5,11,15,2,0,0,0,0,0,0,0,0,12,5,0,0,0,0,0,0,0,0, 2.94 , 29.31 ,8,8, 7.18 , 4.78 , 3.22 ,0,2,172,2,5,12,15,2,0,0,0,0,0,0,0,0,14,2,1,0,0,0,0,0,0,0, 2.99 , 28.80 ,9,9, 7.18 , 4.78 , 4.22 ,0,2,172,2,5,13,15,2,0,0,0,0,0,0,0,0,15,1,1,0,0,0,0,0,0,0, 12.99 , 69.24 ,4,4, 7.18 , 4.78 , 0.78 ,1,2,172,2,5,14,15,2,0,0,0,0,0,0,0,0,10,5,1,0,0,1,0,0,0,0, 2.88 , 28.98 ,7,7, 7.18 , 4.78 , 2.22 ,0,2,172,2,5,15,15,2,0,0,0,0,0,0,0,0,16,0,0,0,1,0,0,0,0,0, 2.98 , 29.27 ,6,6, 7.18 , 4.78 , 1.22 ,0,2,172,2,5,16,15,2,0,0,0,0,0,0,0,0,15,2,0,0,0,0,0,0,0,0, 3.00 , 29.25 ,8,8, 7.18 , 4.78 , 3.22 ,0,2,172,2,5,17,15,2,0,0,0,0,0,0,0,0,14,3,0,0,0,0,0,0,0,0, 2.99 , 28.76 ,7,7, 7.18 , 4.78 , 2.22 ,0,2,172,3,1,1,0,3,5,4,5,0,1,0,1,0,1,2,5,5,5,1,0,0,0,0, 2.98 , 17.98 ,16,16, 36.47 , 24.32 , 8.32 ,0,1,192,3,1,2,0,3,5,4,5,0,1,0,1,0,0,1,3,3,7,4,1,0,0,0, 2.92 , 17.92 ,45,45, 36.47 , 24.32 , 20.68 ,0,1,192,3,1,3,0,3,5,4,5,0,1,0,1,0,0,0,0,2,3,10,4,0,0,0, 2.58 , 17.58 ,34,34, 36.47 , 24.32 , 9.68 ,0,1,192,3,1,4,0,3,5,4,5,0,1,0,1,0,0,1,2,3,5,3,2,2,1,0, 2.92 , 17.92 ,23,23, 36.47 , 24.32 , 1.32 ,0,1,192,3,1,5,0,3,5,4,5,0,1,0,1,0,0,0,1,3,3,6,4,2,0,0, 2.78 , 17.78 ,67,67, 36.47 , 24.32 , 42.68 ,0,1,192,3,1,6,0,3,5,4,5,0,1,0,1,0,0,0,2,3,7,5,2,0,0,0, 2.86 , 17.86 ,38,38, 36.47 , 24.32 , 13.68 ,0,1,192,3,1,7,0,3,5,4,5,0,1,0,1,0,0,1,0,1,4,5,4,1,3,0, 2.78 , 17.78 ,50,50, 36.47 , 24.32 , 25.68 ,0,1,192,3,1,8,0,3,5,4,5,0,1,0,1,0,2,1,1,8,1,1,1,1,1,2, 2.83 , 17.83 ,33,33, 36.47 , 24.32 , 8.68 ,0,1,192,3,1,9,0,3,5,4,5,0,1,0,1,0,2,2,4,5,4,1,1,0,0,0, 2.97 , 17.97 ,17,17, 36.47 , 24.32 , 7.32 ,0,1,192,3,1,10,0,3,5,4,5,0,1,0,1,0,2,2,1,3,4,4,2,1,0,0, 2.88 , 17.88 ,42,42, 36.47 , 24.32 , 17.68 ,0,1,192,3,1,11,0,3,5,4,5,0,1,0,1,0,1,1,1,3,4,2,1,2,3,1, 2.90 , 17.90 ,42,42, 36.47 , 24.32 , 17.68 ,0,1,192,3,1,12,0,3,5,4,5,0,1,0,1,0,1,3,7,5,2,1,0,0,0,0, 2.95 , 17.95 ,23,23, 36.47 , 24.32 , 1.32 ,0,1,192,3,1,13,0,3,5,4,5,0,1,0,1,0,0,1,7,8,3,0,0,0,0,0, 2.92 , 17.92 ,38,38, 36.47 , 24.32 , 13.68 ,0,1,192,3,1,14,0,3,5,4,5,0,1,0,1,0,1,2,2,2,10,0,0,0,0,2, 2.87 , 17.87 ,48,48, 36.47 , 24.32 , 23.68 ,0,1,192,3,1,15,0,3,5,4,5,0,1,0,1,0,0,0,4,1,4,4,0,2,4,0, 2.86 , 17.86 ,90,90, 36.47 , 24.32 , 65.68 ,0,1,192,3,1,16,0,3,5,4,5,0,1,0,1,0,0,1,3,4,5,4,2,0,0,0, 2.93 , 17.93 ,23,23, 36.47 , 24.32 , 1.32 ,0,1,192,3,1,17,0,3,5,4,5,0,1,0,1,0,5,0,2,7,5,0,0,0,0,0, 2.85 , 17.85 ,22,22, 36.47 , 24.32 , 2.32 ,0,1,192,3,1,18,0,3,5,4,5,0,1,0,1,0,0,1,0,3,4,4,4,3,0,0, 22.82 , 37.82 ,25,25, 36.47 , 24.32 , 0.68 ,1,1,192,3,1,19,0,3,5,4,5,0,1,0,1,0,1,1,1,2,5,3,2,3,0,1, 2.87 , 17.87 ,17,17, 36.47 , 24.32 , 7.32 ,0,1,192,3,2,1,0,6,7,5,1,0,0,0,0,0,0,2,4,8,4,1,0,0,0,0, 2.88 , 20.86 ,21,21, 25.79 , 17.19 , 3.81 ,0,1,192,3,2,2,0,6,7,5,1,0,0,0,0,0,0,4,7,5,2,1,0,0,0,0, 2.98 , 20.90 ,39,39, 25.79 , 17.19 , 21.81 ,0,1,192,3,2,3,0,6,7,5,1,0,0,0,0,0,3,8,2,2,2,2,0,0,0,0, 2.86 , 20.43 ,12,12, 25.79 , 17.19 , 5.19 ,0,1,192,3,2,4,0,6,7,5,1,0,0,0,0,0,0,0,15,4,0,0,0,0,0,0, 2.72 , 20.64 ,22,22, 25.79 , 17.19 , 4.81 ,0,1,192,3,2,5,0,6,7,5,1,0,0,0,0,0,0,2,3,7,4,3,0,0,0,0, 2.85 , 20.63 ,44,44, 25.79 , 17.19 , 26.81 ,0,1,192,3,2,6,0,6,7,5,1,0,0,0,0,0,2,4,6,4,2,1,0,0,0,0, 2.97 , 20.83 ,15,15, 25.79 , 17.19 , 2.19 ,0,1,192,3,2,7,0,6,7,5,1,0,0,0,0,0,3,6,4,3,2,0,1,0,0,0, 2.93 , 20.72 ,40,40, 25.79 , 17.19 , 22.81 ,0,1,192,3,2,8,0,6,7,5,1,0,0,0,0,0,1,1,3,3,4,1,1,3,1,1, 2.81 , 20.64 ,22,22, 25.79 , 17.19 , 4.81 ,0,1,192,3,2,9,0,6,7,5,1,0,0,0,0,0,0,2,4,6,5,1,1,0,0,0, 2.88 , 20.85 ,20,20, 25.79 , 17.19 , 2.81 ,0,1,192,3,2,10,0,6,7,5,1,0,0,0,0,0,1,1,5,7,4,1,0,0,0,0, 2.88 , 20.76 ,33,33, 25.79 , 17.19 , 15.81 ,0,1,192,3,2,11,0,6,7,5,1,0,0,0,0,0,0,5,8,5,1,0,0,0,0,0, 2.99 , 20.89 ,21,21, 25.79 , 17.19 , 3.81 ,0,1,192,3,2,12,0,6,7,5,1,0,0,0,0,0,0,4,10,5,0,0,0,0,0,0, 2.96 , 20.91 ,20,20, 25.79 , 17.19 , 2.81 ,0,1,192,3,2,13,0,6,7,5,1,0,0,0,0,0,1,6,7,5,0,0,0,0,0,0, 2.99 , 20.91 ,21,21, 25.79 , 17.19 , 3.81 ,0,1,192,3,2,14,0,6,7,5,1,0,0,0,0,0,2,3,5,4,4,1,0,0,0,0, 2.92 , 20.80 ,35,35, 25.79 , 17.19 , 17.81 ,0,1,192,3,2,15,0,6,7,5,1,0,0,0,0,0,0,4,4,4,4,1,0,1,1,0, 2.93 , 20.79 ,35,35, 25.79 , 17.19 , 17.81 ,0,1,192,3,2,16,0,6,7,5,1,0,0,0,0,0,0,3,9,7,0,0,0,0,0,0, 22.95 , 40.88 ,17,17, 25.79 , 17.19 , 0.19 ,1,1,192,3,2,17,0,6,7,5,1,0,0,0,0,0,0,0,2,7,8,2,0,0,0,0, 2.67 , 20.52 ,28,28, 25.79 , 17.19 , 10.81 ,0,1,192,3,2,18,0,6,7,5,1,0,0,0,0,0,0,2,4,2,4,4,1,0,2,0, 2.82 , 40.64 ,26,26, 25.79 , 17.19 , 8.81 ,0,1,192,3,2,19,0,6,7,5,1,0,0,0,0,0,0,3,6,5,4,1,0,0,0,0, 2.94 , 20.82 ,19,19, 25.79 , 17.19 , 1.81 ,0,1,192,3,3,1,1,14,4,0,0,0,0,0,0,0,2,8,5,3,1,0,0,0,0,0, 2.87 , 23.73 ,8,8, 15.74 , 10.49 , 2.49 ,0,1,192,3,3,2,1,14,4,0,0,0,0,0,0,0,0,9,6,3,1,0,0,0,0,0, 2.89 , 23.79 ,21,21, 15.74 , 10.49 , 10.51 ,0,1,192,3,3,3,1,14,4,0,0,0,0,0,0,0,2,13,4,0,0,0,0,0,0,0, 2.99 , 23.43 ,14,14, 15.74 , 10.49 , 3.51 ,0,1,192,3,3,4,1,14,4,0,0,0,0,0,0,0,0,8,8,3,0,0,0,0,0,0, 22.83 , 43.47 ,11,11, 15.74 , 10.49 , 0.51 ,1,1,192,3,3,5,1,14,4,0,0,0,0,0,0,0,0,3,14,2,0,0,0,0,0,0, 2.37 , 23.00 ,22,22, 15.74 , 10.49 , 11.51 ,0,1,192,3,3,6,1,14,4,0,0,0,0,0,0,0,5,7,4,2,1,0,0,0,0,0, 2.81 , 23.63 ,14,14, 15.74 , 10.49 , 3.51 ,0,1,192,3,3,7,1,14,4,0,0,0,0,0,0,0,2,5,6,4,2,0,0,0,0,0, 2.71 , 23.42 ,15,15, 15.74 , 10.49 , 4.51 ,0,1,192,3,3,8,1,14,4,0,0,0,0,0,0,0,0,4,10,4,1,0,0,0,0,0, 2.57 , 23.21 ,20,20, 15.74 , 10.49 , 9.51 ,0,1,192,3,3,9,1,14,4,0,0,0,0,0,0,0,0,2,5,7,3,1,1,0,0,0, 2.43 , 23.28 ,18,18, 15.74 , 10.49 , 7.51 ,0,1,192,3,3,10,1,14,4,0,0,0,0,0,0,0,0,7,10,2,0,0,0,0,0,0, 2.75 , 23.51 ,27,27, 15.74 , 10.49 , 16.51 ,0,1,192,3,3,11,1,14,4,0,0,0,0,0,0,0,7,12,0,0,0,0,0,0,0,0, 2.84 , 23.74 ,12,12, 15.74 , 10.49 , 1.51 ,0,1,192,3,3,12,1,14,4,0,0,0,0,0,0,0,1,9,6,3,0,0,0,0,0,0, 2.89 , 23.81 ,12,12, 15.74 , 10.49 , 1.51 ,0,1,192,3,3,13,1,14,4,0,0,0,0,0,0,0,1,8,7,3,0,0,0,0,0,0, 2.85 , 23.76 ,15,15, 15.74 , 10.49 , 4.51 ,0,1,192,3,3,14,1,14,4,0,0,0,0,0,0,0,4,10,4,1,0,0,0,0,0,0, 2.93 , 23.72 ,14,14, 15.74 , 10.49 , 3.51 ,0,1,192,3,3,15,1,14,4,0,0,0,0,0,0,0,0,6,7,3,1,2,0,0,0,0, 2.76 , 23.55 ,27,27, 15.74 , 10.49 , 16.51 ,0,1,192,3,3,16,1,14,4,0,0,0,0,0,0,0,1,9,7,2,0,0,0,0,0,0, 2.89 , 43.77 ,12,12, 15.74 , 10.49 , 1.51 ,0,1,192,3,3,17,1,14,4,0,0,0,0,0,0,0,2,7,8,2,0,0,0,0,0,0, 2.81 , 23.33 ,12,12, 15.74 , 10.49 , 1.51 ,0,1,192,3,3,18,1,14,4,0,0,0,0,0,0,0,3,5,7,3,1,0,0,0,0,0, 2.71 , 43.35 ,12,12, 15.74 , 10.49 , 1.51 ,0,1,192,3,3,19,1,14,4,0,0,0,0,0,0,0,4,10,3,2,0,0,0,0,0,0, 2.92 , 23.73 ,13,13, 15.74 , 10.49 , 2.51 ,0,1,192,3,4,1,15,3,0,0,0,0,0,0,0,1,7,11,1,0,0,0,0,0,0,0, 2.64 , 26.37 ,4,4, 13.26 , 8.84 , 4.84 ,0,2,192,3,4,2,15,3,0,0,0,0,0,0,0,1,1,13,3,1,0,0,0,0,0,1, 2.15 , 25.94 ,99,99, 13.26 , 8.84 , 90.16 ,0,2,192,3,4,3,15,3,0,0,0,0,0,0,0,1,14,5,0,0,0,0,0,0,0,0, 2.98 , 26.41 ,6,6, 13.26 , 8.84 , 2.84 ,0,2,192,3,4,4,15,3,0,0,0,0,0,0,0,1,19,0,0,0,0,0,0,0,0,0, 2.93 , 46.40 ,6,6, 13.26 , 8.84 , 2.84 ,0,2,192,3,4,5,15,3,0,0,0,0,0,0,0,1,15,4,0,0,0,0,0,0,0,0, 2.99 , 26.00 ,7,7, 13.26 , 8.84 , 1.84 ,0,2,192,3,4,6,15,3,0,0,0,0,0,0,0,1,15,3,1,0,0,0,0,0,0,0, 2.99 , 26.63 ,7,7, 13.26 , 8.84 , 1.84 ,0,2,192,3,4,7,15,3,0,0,0,0,0,0,0,1,9,10,0,0,0,0,0,0,0,0, 2.76 , 26.19 ,10,10, 13.26 , 8.84 , 1.16 ,0,2,192,3,4,8,15,3,0,0,0,0,0,0,0,1,10,7,2,0,0,0,0,0,0,0, 2.87 , 26.09 ,5,5, 13.26 , 8.84 , 3.84 ,0,2,192,3,4,9,15,3,0,0,0,0,0,0,0,1,6,7,3,2,1,0,0,0,0,0, 2.69 , 25.97 ,10,10, 13.26 , 8.84 , 1.16 ,0,2,192,3,4,10,15,3,0,0,0,0,0,0,0,1,1,16,2,0,0,0,0,0,0,0, 1.98 , 25.49 ,18,18, 13.26 , 8.84 , 9.16 ,0,2,192,3,4,11,15,3,0,0,0,0,0,0,0,1,11,8,0,0,0,0,0,0,0,0, 2.88 , 26.62 ,7,7, 13.26 , 8.84 , 1.84 ,0,2,192,3,4,12,15,3,0,0,0,0,0,0,0,1,11,7,1,0,0,0,0,0,0,0, 2.91 , 26.71 ,6,6, 13.26 , 8.84 , 2.84 ,0,2,192,3,4,13,15,3,0,0,0,0,0,0,0,1,8,10,1,0,0,0,0,0,0,0, 2.72 , 26.48 ,7,7, 13.26 , 8.84 , 1.84 ,0,2,192,3,4,14,15,3,0,0,0,0,0,0,0,1,2,11,5,1,0,0,0,0,0,0, 2.28 , 26.00 ,15,15, 13.26 , 8.84 , 6.16 ,0,2,192,3,4,15,15,3,0,0,0,0,0,0,0,1,0,10,5,4,0,0,0,0,0,0, 2.12 , 25.67 ,14,14, 13.26 , 8.84 , 5.16 ,0,2,192,3,4,16,15,3,0,0,0,0,0,0,0,1,12,7,0,0,0,0,0,0,0,0, 12.93 , 56.70 ,9,9, 13.26 , 8.84 , 0.16 ,1,2,192,3,4,17,15,3,0,0,0,0,0,0,0,1,10,9,0,0,0,0,0,0,0,0, 2.83 , 26.16 ,5,5, 13.26 , 8.84 , 3.84 ,0,2,192,3,4,18,15,3,0,0,0,0,0,0,0,1,6,12,1,0,0,0,0,0,0,0, 2.55 , 45.90 ,8,8, 13.26 , 8.84 , 0.84 ,0,2,192,3,4,19,15,3,0,0,0,0,0,0,0,1,8,8,3,0,0,0,0,0,0,0, 12.77 , 36.50 ,9,9, 13.26 , 8.84 , 0.16 ,1,2,192,3,5,1,16,3,0,0,0,0,0,0,0,0,10,9,0,0,0,0,0,0,0,0, 2.80 , 29.17 ,6,6, 7.21 , 4.81 , 1.19 ,0,3,192,3,5,2,16,3,0,0,0,0,0,0,0,0,12,5,2,0,0,0,0,0,0,0, 2.93 , 28.88 ,11,11, 7.21 , 4.81 , 6.19 ,0,3,192,3,5,3,16,3,0,0,0,0,0,0,0,0,19,0,0,0,0,0,0,0,0,0, 2.95 , 29.36 ,4,4, 7.21 , 4.81 , 0.81 ,0,3,192,3,5,4,16,3,0,0,0,0,0,0,0,0,18,1,0,0,0,0,0,0,0,0, 9.64 , 56.04 ,5,5, 7.21 , 4.81 , 0.19 ,1,3,192,3,5,5,16,3,0,0,0,0,0,0,0,0,3,16,0,0,0,0,0,0,0,0, 2.06 , 28.06 ,15,15, 7.21 , 4.81 , 10.19 ,0,3,192,3,5,6,16,3,0,0,0,0,0,0,0,0,17,1,0,0,0,0,0,0,0,1, 2.98 , 29.61 ,4,4, 7.21 , 4.81 , 0.81 ,0,3,192,3,5,7,16,3,0,0,0,0,0,0,0,0,15,4,0,0,0,0,0,0,0,0, 2.99 , 29.18 ,3,3, 7.21 , 4.81 , 1.81 ,0,3,192,3,5,8,16,3,0,0,0,0,0,0,0,0,9,9,1,0,0,0,0,0,0,0, 2.76 , 28.85 ,7,7, 7.21 , 4.81 , 2.19 ,0,3,192,3,5,9,16,3,0,0,0,0,0,0,0,0,14,4,1,0,0,0,0,0,0,0, 2.98 , 28.95 ,8,8, 7.21 , 4.81 , 3.19 ,0,3,192,3,5,10,16,3,0,0,0,0,0,0,0,0,19,0,0,0,0,0,0,0,0,0, 9.62 , 35.10 ,5,5, 7.21 , 4.81 , 0.19 ,1,3,192,3,5,11,16,3,0,0,0,0,0,0,0,0,16,3,0,0,0,0,0,0,0,0, 3.00 , 29.62 ,7,7, 7.21 , 4.81 , 2.19 ,0,3,192,3,5,12,16,3,0,0,0,0,0,0,0,0,16,3,0,0,0,0,0,0,0,0, 3.00 , 29.71 ,6,6, 7.21 , 4.81 , 1.19 ,0,3,192,3,5,13,16,3,0,0,0,0,0,0,0,0,17,2,0,0,0,0,0,0,0,0, 2.99 , 29.48 ,7,7, 7.21 , 4.81 , 2.19 ,0,3,192,3,5,14,16,3,0,0,0,0,0,0,0,0,13,4,2,0,0,0,0,0,0,0, 2.96 , 28.96 ,13,13, 7.21 , 4.81 , 8.19 ,0,3,192,3,5,15,16,3,0,0,0,0,0,0,0,0,8,7,2,0,0,0,0,0,0,2, 2.76 , 28.43 ,10,10, 7.21 , 4.81 , 5.19 ,0,3,192,3,5,16,16,3,0,0,0,0,0,0,0,0,13,6,0,0,0,0,0,0,0,0, 2.95 , 59.65 ,9,9, 7.21 , 4.81 , 4.19 ,0,3,192,3,5,17,16,3,0,0,0,0,0,0,0,0,14,5,0,0,0,0,0,0,0,0, 9.64 , 35.80 ,5,5, 7.21 , 4.81 , 0.19 ,1,3,192,3,5,18,16,3,0,0,0,0,0,0,0,0,13,4,2,0,0,0,0,0,0,0, 2.96 , 48.86 ,6,6, 7.21 , 4.81 , 1.19 ,0,3,192,3,5,19,16,3,0,0,0,0,0,0,0,0,15,3,1,0,0,0,0,0,0,0, 2.99 , 39.50 ,6,6, 7.21 , 4.81 , 1.19 ,0,3,193,1,1,1,1,1,2,7,3,3,0,2,1,0,6,2,3,0,1,3,0,0,0,5, 2.73 , 17.73 ,45,45, 43.10 , 28.73 , 16.27 ,0,2,203,1,1,2,1,1,2,7,3,3,0,2,1,0,1,0,3,3,3,2,1,1,3,3, 2.92 , 17.92 ,47,47, 43.10 , 28.73 , 18.27 ,0,2,203,1,1,3,1,1,2,7,3,3,0,2,1,0,0,1,1,1,9,5,1,1,1,0, 2.80 , 17.80 ,38,38, 43.10 , 28.73 , 9.27 ,0,2,203,1,1,4,1,1,2,7,3,3,0,2,1,0,2,6,10,2,0,0,0,0,0,0, 2.66 , 17.66 ,15,15, 43.10 , 28.73 , 13.73 ,0,2,203,1,1,5,1,1,2,7,3,3,0,2,1,0,0,1,0,7,7,2,3,0,0,0, 2.91 , 17.91 ,34,34, 43.10 , 28.73 , 5.27 ,0,2,203,1,1,6,1,1,2,7,3,3,0,2,1,0,2,2,3,3,2,1,1,1,3,2, 2.92 , 17.92 ,34,34, 43.10 , 28.73 , 5.27 ,0,2,203,1,1,7,1,1,2,7,3,3,0,2,1,0,1,2,1,2,5,2,0,4,0,3, 2.89 , 17.89 ,55,55, 43.10 , 28.73 , 26.27 ,0,2,203,1,1,8,1,1,2,7,3,3,0,2,1,0,0,2,0,0,3,4,4,4,2,1, 2.81 , 17.81 ,56,56, 43.10 , 28.73 , 27.27 ,0,2,203,1,1,9,1,1,2,7,3,3,0,2,1,0,1,2,2,2,3,2,2,2,1,3, 2.90 , 17.90 ,76,76, 43.10 , 28.73 , 47.27 ,0,2,203,1,1,10,1,1,2,7,3,3,0,2,1,0,2,1,8,3,5,1,0,0,0,0, 2.84 , 17.84 ,0,0, 43.10 , 28.73 , 28.73 ,0,2,203,1,1,11,1,1,2,7,3,3,0,2,1,0,1,1,1,1,6,6,1,1,1,1, 2.86 , 17.86 ,33,33, 43.10 , 28.73 , 4.27 ,0,2,203,1,1,12,1,1,2,7,3,3,0,2,1,0,0,0,1,2,4,5,5,2,1,0, 2.86 , 17.86 ,41,41, 43.10 , 28.73 , 12.27 ,0,2,203,1,1,13,1,1,2,7,3,3,0,2,1,0,1,2,3,0,4,5,1,0,2,2, 2.84 , 17.84 ,83,83, 43.10 , 28.73 , 54.27 ,0,2,203,1,1,14,1,1,2,7,3,3,0,2,1,0,0,0,0,0,1,3,4,6,5,1, 2.73 , 17.73 ,77,77, 43.10 , 28.73 , 48.27 ,0,2,203,1,1,15,1,1,2,7,3,3,0,2,1,0,0,1,4,9,5,1,0,0,0,0, 12.95 , 27.95 ,30,30, 43.10 , 28.73 , 1.27 ,1,2,203,1,1,16,1,1,2,7,3,3,0,2,1,0,1,1,3,3,5,2,0,3,1,1, 12.94 , 27.94 ,30,30, 43.10 , 28.73 , 1.27 ,1,2,203,1,1,17,1,1,2,7,3,3,0,2,1,0,1,1,3,5,5,3,2,0,0,0, 2.96 , 17.96 ,39,39, 43.10 , 28.73 , 10.27 ,0,2,203,1,1,18,1,1,2,7,3,3,0,2,1,0,0,0,2,5,5,5,3,0,0,0, 2.93 , 17.93 ,40,40, 43.10 , 28.73 , 11.27 ,0,2,203,1,1,19,1,1,2,7,3,3,0,2,1,0,0,2,3,3,5,2,2,2,1,0, 2.93 , 17.93 ,33,33, 43.10 , 28.73 , 4.27 ,0,2,203,1,1,20,1,1,2,7,3,3,0,2,1,0,3,1,0,0,7,5,0,0,2,2, 2.79 , 17.79 ,56,56, 43.10 , 28.73 , 27.27 ,0,2,203,1,2,1,1,5,5,7,0,0,1,0,0,1,3,3,2,5,3,2,1,0,0,1, 2.92 , 20.64 ,25,25, 32.10 , 21.40 , 3.60 ,0,1,203,1,2,2,1,5,5,7,0,0,1,0,0,1,3,2,1,2,1,2,2,1,3,3, 2.82 , 20.73 ,31,31, 32.10 , 21.40 , 9.60 ,0,1,203,1,2,3,1,5,5,7,0,0,1,0,0,1,1,0,1,12,2,2,1,0,0,1, 2.82 , 20.62 ,39,39, 32.10 , 21.40 , 17.60 ,0,1,203,1,2,4,1,5,5,7,0,0,1,0,0,1,1,4,4,10,1,0,0,0,0,0, 2.97 , 20.62 ,24,24, 32.10 , 21.40 , 2.60 ,0,1,203,1,2,5,1,5,5,7,0,0,1,0,0,1,0,1,6,12,1,0,0,0,0,0, 2.89 , 20.80 ,30,30, 32.10 , 21.40 , 8.60 ,0,1,203,1,2,6,1,5,5,7,0,0,1,0,0,1,3,7,3,2,1,2,1,1,0,0, 2.89 , 20.81 ,18,18, 32.10 , 21.40 , 3.40 ,0,1,203,1,2,7,1,5,5,7,0,0,1,0,0,1,1,2,1,6,5,2,0,2,0,1, 2.85 , 20.74 ,36,36, 32.10 , 21.40 , 14.60 ,0,1,203,1,2,8,1,5,5,7,0,0,1,0,0,1,0,1,3,5,3,4,2,1,1,0, 2.87 , 20.67 ,39,39, 32.10 , 21.40 , 17.60 ,0,1,203,1,2,9,1,5,5,7,0,0,1,0,0,1,0,5,3,7,2,2,1,0,0,0, 2.97 , 20.87 ,16,16, 32.10 , 21.40 , 5.40 ,0,1,203,1,2,10,1,5,5,7,0,0,1,0,0,1,2,3,6,4,3,2,0,0,0,0, 2.93 , 20.76 ,5,5, 32.10 , 21.40 , 16.40 ,0,1,203,1,2,11,1,5,5,7,0,0,1,0,0,1,2,2,2,2,2,2,2,2,2,2, 2.85 , 20.70 ,37,37, 32.10 , 21.40 , 15.60 ,0,1,203,1,2,12,1,5,5,7,0,0,1,0,0,1,0,0,9,5,3,3,0,0,0,0, 2.84 , 20.69 ,19,19, 32.10 , 21.40 , 2.40 ,0,1,203,1,2,13,1,5,5,7,0,0,1,0,0,1,1,1,2,4,5,2,2,0,1,2, 2.84 , 20.67 ,100,100, 32.10 , 21.40 , 78.60 ,0,1,203,1,2,14,1,5,5,7,0,0,1,0,0,1,0,1,2,5,6,2,2,1,1,0, 2.82 , 20.55 ,67,67, 32.10 , 21.40 , 45.60 ,0,1,203,1,2,15,1,5,5,7,0,0,1,0,0,1,2,3,8,5,1,1,0,0,0,0, 2.95 , 30.89 ,23,23, 32.10 , 21.40 , 1.60 ,0,1,203,1,2,16,1,5,5,7,0,0,1,0,0,1,0,0,1,7,5,3,2,1,1,0, 2.80 , 30.74 ,35,35, 32.10 , 21.40 , 13.60 ,0,1,203,1,2,17,1,5,5,7,0,0,1,0,0,1,2,3,5,7,3,0,0,0,0,0, 2.96 , 20.92 ,17,17, 32.10 , 21.40 , 4.40 ,0,1,203,1,2,18,1,5,5,7,0,0,1,0,0,1,2,3,7,2,3,3,0,0,0,0, 2.87 , 20.80 ,25,25, 32.10 , 21.40 , 3.60 ,0,1,203,1,2,19,1,5,5,7,0,0,1,0,0,1,2,8,5,3,2,0,0,0,0,0, 22.92 , 40.85 ,20,20, 32.10 , 21.40 , 1.40 ,1,1,203,1,2,20,1,5,5,7,0,0,1,0,0,1,3,0,0,1,6,4,1,0,2,3, 2.63 , 20.41 ,36,36, 32.10 , 21.40 , 14.60 ,0,1,203,1,3,1,1,9,4,4,1,1,0,0,0,0,1,2,3,6,3,1,2,1,1,0, 2.84 , 23.48 ,35,35, 25.60 , 17.07 , 17.93 ,0,2,203,1,3,2,1,9,4,4,1,1,0,0,0,0,4,4,2,2,4,0,2,0,2,0, 2.85 , 23.58 ,30,30, 25.60 , 17.07 , 12.93 ,0,2,203,1,3,3,1,9,4,4,1,1,0,0,0,0,0,2,3,10,2,1,1,1,0,0, 2.78 , 23.39 ,37,37, 25.60 , 17.07 , 19.93 ,0,2,203,1,3,4,1,9,4,4,1,1,0,0,0,0,1,5,6,7,1,0,0,0,0,0, 2.93 , 23.55 ,28,28, 25.60 , 17.07 , 10.93 ,0,2,203,1,3,5,1,9,4,4,1,1,0,0,0,0,0,3,10,4,3,0,0,0,0,0, 2.81 , 23.60 ,19,19, 25.60 , 17.07 , 1.93 ,0,2,203,1,3,6,1,9,4,4,1,1,0,0,0,0,3,4,5,4,3,1,0,0,0,0, 2.92 , 23.72 ,18,18, 25.60 , 17.07 , 0.93 ,0,2,203,1,3,7,1,9,4,4,1,1,0,0,0,0,1,1,2,2,5,6,1,2,0,0, 2.71 , 23.44 ,60,60, 25.60 , 17.07 , 42.93 ,0,2,203,1,3,8,1,9,4,4,1,1,0,0,0,0,4,5,7,2,2,0,0,0,0,0, 2.90 , 23.57 ,11,11, 25.60 , 17.07 , 6.07 ,0,2,203,1,3,9,1,9,4,4,1,1,0,0,0,0,0,2,10,5,1,0,1,0,0,1, 2.78 , 23.64 ,26,26, 25.60 , 17.07 , 8.93 ,0,2,203,1,3,10,1,9,4,4,1,1,0,0,0,0,1,2,6,7,2,1,0,0,0,1, 2.84 , 23.60 ,8,8, 25.60 , 17.07 , 9.07 ,0,2,203,1,3,11,1,9,4,4,1,1,0,0,0,0,1,3,5,3,3,1,1,1,1,1, 2.89 , 23.59 ,12,12, 25.60 , 17.07 , 5.07 ,0,2,203,1,3,12,1,9,4,4,1,1,0,0,0,0,6,10,4,0,0,0,0,0,0,0, 2.89 , 23.58 ,14,14, 25.60 , 17.07 , 3.07 ,0,2,203,1,3,13,1,9,4,4,1,1,0,0,0,0,1,0,0,2,4,3,3,4,1,2, 2.64 , 23.31 ,50,50, 25.60 , 17.07 , 32.93 ,0,2,203,1,3,14,1,9,4,4,1,1,0,0,0,0,0,1,6,7,4,2,0,0,0,0, 2.78 , 23.33 ,33,33, 25.60 , 17.07 , 15.93 ,0,2,203,1,3,15,1,9,4,4,1,1,0,0,0,0,1,3,10,4,1,0,0,0,0,1, 2.82 , 33.71 ,20,20, 25.60 , 17.07 , 2.93 ,0,2,203,1,3,16,1,9,4,4,1,1,0,0,0,0,1,6,5,4,3,1,0,0,0,0, 12.97 , 43.71 ,17,17, 25.60 , 17.07 , 0.07 ,1,2,203,1,3,17,1,9,4,4,1,1,0,0,0,0,3,8,7,2,0,0,0,0,0,0, 2.95 , 23.87 ,16,16, 25.60 , 17.07 , 1.07 ,0,2,203,1,3,18,1,9,4,4,1,1,0,0,0,0,3,4,7,6,0,0,0,0,0,0, 2.89 , 23.69 ,28,28, 25.60 , 17.07 , 10.93 ,0,2,203,1,3,19,1,9,4,4,1,1,0,0,0,0,3,5,7,4,1,0,0,0,0,0, 12.93 , 53.78 ,17,17, 25.60 , 17.07 , 0.07 ,1,2,203,1,3,20,1,9,4,4,1,1,0,0,0,0,3,4,1,2,3,2,1,2,0,2, 2.86 , 23.27 ,33,33, 25.60 , 17.07 , 15.93 ,0,2,203,1,4,1,0,17,2,0,0,0,1,0,0,0,6,4,4,3,2,1,0,0,0,0, 12.44 , 35.92 ,12,12, 18.30 , 12.20 , 0.20 ,1,2,203,1,4,2,0,17,2,0,0,0,1,0,0,0,4,8,3,2,1,0,2,0,0,0, 2.74 , 26.32 ,17,17, 18.30 , 12.20 , 4.80 ,0,2,203,1,4,3,0,17,2,0,0,0,1,0,0,0,2,4,7,4,2,1,0,0,0,0, 2.45 , 25.84 ,30,30, 18.30 , 12.20 , 17.80 ,0,2,203,1,4,4,0,17,2,0,0,0,1,0,0,0,4,10,4,2,0,0,0,0,0,0, 2.82 , 26.36 ,14,14, 18.30 , 12.20 , 1.80 ,0,2,203,1,4,5,0,17,2,0,0,0,1,0,0,0,1,11,7,1,0,0,0,0,0,0, 2.84 , 26.44 ,14,14, 18.30 , 12.20 , 1.80 ,0,2,203,1,4,6,0,17,2,0,0,0,1,0,0,0,5,8,4,2,1,0,0,0,0,0, 2.71 , 26.43 ,13,13, 18.30 , 12.20 , 0.80 ,0,2,203,1,4,7,0,17,2,0,0,0,1,0,0,0,1,6,5,2,4,2,0,0,0,0, 2.61 , 26.05 ,18,18, 18.30 , 12.20 , 5.80 ,0,2,203,1,4,8,0,17,2,0,0,0,1,0,0,0,5,10,5,0,0,0,0,0,0,0, 2.79 , 26.36 ,13,13, 18.30 , 12.20 , 0.80 ,0,2,203,1,4,9,0,17,2,0,0,0,1,0,0,0,2,8,6,2,0,1,0,0,1,0, 2.73 , 26.37 ,16,16, 18.30 , 12.20 , 3.80 ,0,2,203,1,4,10,0,17,2,0,0,0,1,0,0,0,4,8,3,3,1,1,0,0,0,0, 2.73 , 26.33 ,14,14, 18.30 , 12.20 , 1.80 ,0,2,203,1,4,11,0,17,2,0,0,0,1,0,0,0,1,12,5,1,1,0,0,0,0,0, 2.91 , 26.49 ,15,15, 18.30 , 12.20 , 2.80 ,0,2,203,1,4,12,0,17,2,0,0,0,1,0,0,0,2,12,3,3,0,0,0,0,0,0, 2.90 , 26.48 ,15,15, 18.30 , 12.20 , 2.80 ,0,2,203,1,4,13,0,17,2,0,0,0,1,0,0,0,1,3,1,3,2,3,3,2,1,1, 2.43 , 25.74 ,67,67, 18.30 , 12.20 , 54.80 ,0,2,203,1,4,14,0,17,2,0,0,0,1,0,0,0,1,8,6,4,1,0,0,0,0,0, 2.71 , 26.04 ,18,18, 18.30 , 12.20 , 5.80 ,0,2,203,1,4,15,0,17,2,0,0,0,1,0,0,0,4,10,4,2,0,0,0,0,0,0, 2.82 , 36.52 ,14,14, 18.30 , 12.20 , 1.80 ,0,2,203,1,4,16,0,17,2,0,0,0,1,0,0,0,1,7,5,4,3,0,0,0,0,0, 2.66 , 46.37 ,11,11, 18.30 , 12.20 , 1.20 ,0,2,203,1,4,17,0,17,2,0,0,0,1,0,0,0,2,11,5,2,0,0,0,0,0,0, 2.87 , 26.73 ,16,16, 18.30 , 12.20 , 3.80 ,0,2,203,1,4,18,0,17,2,0,0,0,1,0,0,0,0,6,7,6,1,0,0,0,0,0, 2.54 , 26.23 ,21,21, 18.30 , 12.20 , 8.80 ,0,2,203,1,4,19,0,17,2,0,0,0,1,0,0,0,4,10,3,2,1,0,0,0,0,0, 12.82 , 66.60 ,12,12, 18.30 , 12.20 , 0.20 ,1,2,203,1,4,20,0,17,2,0,0,0,1,0,0,0,2,10,3,0,2,2,0,0,0,1, 2.84 , 26.11 ,16,16, 18.30 , 12.20 , 3.80 ,0,2,203,1,5,1,9,8,0,0,1,0,0,1,0,1,0,16,2,0,1,0,1,0,0,0, 9.29 , 45.21 ,13,13, 19.70 , 13.13 , 0.13 ,1,3,203,1,5,2,9,8,0,0,1,0,0,1,0,1,2,11,5,1,0,1,0,0,0,0, 2.78 , 29.10 ,14,14, 19.70 , 13.13 , 0.87 ,0,3,203,1,5,3,9,8,0,0,1,0,0,1,0,1,2,14,2,1,1,0,0,0,0,0, 2.77 , 28.61 ,11,11, 19.70 , 13.13 , 2.13 ,0,3,203,1,5,4,9,8,0,0,1,0,0,1,0,1,5,12,2,1,0,0,0,0,0,0, 2.90 , 29.26 ,9,9, 19.70 , 13.13 , 4.13 ,0,3,203,1,5,5,9,8,0,0,1,0,0,1,0,1,3,16,1,0,0,0,0,0,0,0, 2.74 , 29.18 ,5,5, 19.70 , 13.13 , 8.13 ,0,3,203,1,5,6,9,8,0,0,1,0,0,1,0,1,8,12,0,0,0,0,0,0,0,0, 2.95 , 29.38 ,9,9, 19.70 , 13.13 , 4.13 ,0,3,203,1,5,7,9,8,0,0,1,0,0,1,0,1,2,14,2,1,1,0,0,0,0,0, 2.77 , 28.82 ,12,12, 19.70 , 13.13 , 1.13 ,0,3,203,1,5,8,9,8,0,0,1,0,0,1,0,1,4,12,4,0,0,0,0,0,0,0, 2.85 , 29.21 ,12,12, 19.70 , 13.13 , 1.13 ,0,3,203,1,5,9,9,8,0,0,1,0,0,1,0,1,6,13,0,0,0,0,0,0,0,1, 2.91 , 29.28 ,96,96, 19.70 , 13.13 , 82.87 ,0,3,203,1,5,10,9,8,0,0,1,0,0,1,0,1,9,9,1,1,0,0,0,0,0,0, 2.99 , 29.31 ,9,9, 19.70 , 13.13 , 4.13 ,0,3,203,1,5,11,9,8,0,0,1,0,0,1,0,1,0,20,0,0,0,0,0,0,0,0, 9.10 , 35.59 ,13,13, 19.70 , 13.13 , 0.13 ,1,3,203,1,5,12,9,8,0,0,1,0,0,1,0,1,2,16,2,0,0,0,0,0,0,0, 2.70 , 29.18 ,8,8, 19.70 , 13.13 , 5.13 ,0,3,203,1,5,13,9,8,0,0,1,0,0,1,0,1,1,2,3,5,5,1,1,1,0,1, 2.62 , 28.36 ,43,43, 19.70 , 13.13 , 29.87 ,0,3,203,1,5,14,9,8,0,0,1,0,0,1,0,1,1,15,3,0,0,0,0,1,0,0, 2.69 , 28.73 ,77,77, 19.70 , 13.13 , 63.87 ,0,3,203,1,5,15,9,8,0,0,1,0,0,1,0,1,9,10,0,0,0,1,0,0,0,0, 2.98 , 39.50 ,9,9, 19.70 , 13.13 , 4.13 ,0,3,203,1,5,16,9,8,0,0,1,0,0,1,0,1,4,13,3,0,0,0,0,0,0,0, 2.85 , 49.21 ,10,10, 19.70 , 13.13 , 3.13 ,0,3,203,1,5,17,9,8,0,0,1,0,0,1,0,1,6,14,0,0,0,0,0,0,0,0, 2.88 , 29.61 ,8,8, 19.70 , 13.13 , 5.13 ,0,3,203,1,5,18,9,8,0,0,1,0,0,1,0,1,4,7,2,4,2,1,0,0,0,0, 2.88 , 29.10 ,15,15, 19.70 , 13.13 , 1.87 ,0,3,203,1,5,19,9,8,0,0,1,0,0,1,0,1,8,10,2,0,0,0,0,0,0,0, 2.97 , 69.57 ,8,8, 19.70 , 13.13 , 5.13 ,0,3,203,1,5,20,9,8,0,0,1,0,0,1,0,1,0,19,1,0,0,0,0,0,0,0, 9.15 , 35.26 ,13,13, 19.70 , 13.13 , 0.13 ,1,3,203,2,1,1,1,4,6,2,2,4,1,0,0,0,0,0,1,3,5,7,2,2,0,0, 2.84 , 17.84 ,38,38, 33.55 , 22.37 , 15.63 ,0,1,203,2,1,2,1,4,6,2,2,4,1,0,0,0,0,0,5,7,3,0,0,5,0,0, 2.79 , 17.79 ,25,25, 33.55 , 22.37 , 2.63 ,0,1,203,2,1,3,1,4,6,2,2,4,1,0,0,0,0,0,0,0,5,5,8,2,0,0, 2.70 , 17.70 ,52,52, 33.55 , 22.37 , 29.63 ,0,1,203,2,1,4,1,4,6,2,2,4,1,0,0,0,0,0,0,5,10,5,0,0,0,0, 2.68 , 17.68 ,35,35, 33.55 , 22.37 , 12.63 ,0,1,203,2,1,5,1,4,6,2,2,4,1,0,0,0,0,3,4,4,7,1,1,0,0,0, 2.89 , 17.89 ,10,10, 33.55 , 22.37 , 12.37 ,0,1,203,2,1,6,1,4,6,2,2,4,1,0,0,0,3,5,7,5,0,0,0,0,0,0, 2.91 , 17.91 ,16,16, 33.55 , 22.37 , 6.37 ,0,1,203,2,1,7,1,4,6,2,2,4,1,0,0,0,0,1,5,0,2,7,0,0,0,5, 2.88 , 17.88 ,54,54, 33.55 , 22.37 , 31.63 ,0,1,203,2,1,8,1,4,6,2,2,4,1,0,0,0,0,0,1,1,1,3,6,7,1,0, 2.70 , 17.70 ,24,24, 33.55 , 22.37 , 1.63 ,0,1,203,2,1,9,1,4,6,2,2,4,1,0,0,0,1,8,7,4,0,0,0,0,0,0, 2.90 , 17.90 ,16,16, 33.55 , 22.37 , 6.37 ,0,1,203,2,1,10,1,4,6,2,2,4,1,0,0,0,5,0,4,8,3,0,0,0,0,0, 2.78 , 17.78 ,27,27, 33.55 , 22.37 , 4.63 ,0,1,203,2,1,11,1,4,6,2,2,4,1,0,0,0,0,0,5,10,5,0,0,0,0,0, 22.73 , 37.73 ,23,23, 33.55 , 22.37 , 0.63 ,1,1,203,2,1,12,1,4,6,2,2,4,1,0,0,0,0,0,7,7,6,0,0,0,0,0, 2.81 , 17.81 ,18,18, 33.55 , 22.37 , 4.37 ,0,1,203,2,1,13,1,4,6,2,2,4,1,0,0,0,1,1,3,3,2,4,2,1,2,1, 2.94 , 17.94 ,49,49, 33.55 , 22.37 , 26.63 ,0,1,203,2,1,14,1,4,6,2,2,4,1,0,0,0,0,0,0,0,4,4,8,4,0,0, 2.69 , 17.69 ,53,53, 33.55 , 22.37 , 30.63 ,0,1,203,2,1,15,1,4,6,2,2,4,1,0,0,0,0,5,0,5,0,5,0,5,0,0, 2.81 , 17.81 ,55,55, 33.55 , 22.37 , 32.63 ,0,1,203,2,1,16,1,4,6,2,2,4,1,0,0,0,0,2,0,3,0,10,3,2,0,0, 2.78 , 17.78 ,63,63, 33.55 , 22.37 , 40.63 ,0,1,203,2,1,17,1,4,6,2,2,4,1,0,0,0,0,1,9,7,3,0,0,0,0,0, 2.85 , 17.85 ,26,26, 33.55 , 22.37 , 3.63 ,0,1,203,2,1,18,1,4,6,2,2,4,1,0,0,0,0,0,1,1,2,2,5,5,3,1, 2.76 , 17.76 ,29,29, 33.55 , 22.37 , 6.63 ,0,1,203,2,1,19,1,4,6,2,2,4,1,0,0,0,0,0,0,4,3,6,6,1,0,0, 2.78 , 17.78 ,41,41, 33.55 , 22.37 , 18.63 ,0,1,203,2,1,20,1,4,6,2,2,4,1,0,0,0,2,7,6,2,2,1,0,0,0,0, 2.95 , 17.95 ,17,17, 33.55 , 22.37 , 5.37 ,0,1,203,2,2,1,4,9,4,1,1,0,0,1,0,0,1,6,8,4,1,0,0,0,0,0, 2.89 , 20.73 ,18,18, 22.05 , 14.70 , 3.30 ,0,1,203,2,2,2,4,9,4,1,1,0,0,1,0,0,0,5,5,0,1,0,0,4,5,0, 2.83 , 20.62 ,75,75, 22.05 , 14.70 , 60.30 ,0,1,203,2,2,3,4,9,4,1,1,0,0,1,0,0,5,8,6,1,0,0,0,0,0,0, 2.98 , 20.68 ,9,9, 22.05 , 14.70 , 5.70 ,0,1,203,2,2,4,4,9,4,1,1,0,0,1,0,0,0,4,6,0,3,0,3,0,4,0, 2.81 , 20.49 ,20,20, 22.05 , 14.70 , 5.30 ,0,1,203,2,2,5,4,9,4,1,1,0,0,1,0,0,0,0,5,8,4,3,0,0,0,0, 2.59 , 20.48 ,22,22, 22.05 , 14.70 , 7.30 ,0,1,203,2,2,6,4,9,4,1,1,0,0,1,0,0,0,9,8,3,0,0,0,0,0,0, 2.91 , 20.82 ,16,16, 22.05 , 14.70 , 1.30 ,0,1,203,2,2,7,4,9,4,1,1,0,0,1,0,0,2,2,4,1,5,3,0,3,0,0, 2.80 , 20.67 ,41,41, 22.05 , 14.70 , 26.30 ,0,1,203,2,2,8,4,9,4,1,1,0,0,1,0,0,0,0,1,3,5,5,4,1,1,0, 2.58 , 20.28 ,37,37, 22.05 , 14.70 , 22.30 ,0,1,203,2,2,9,4,9,4,1,1,0,0,1,0,0,3,3,4,4,1,1,1,1,1,1, 2.88 , 20.77 ,20,20, 22.05 , 14.70 , 5.30 ,0,1,203,2,2,10,4,9,4,1,1,0,0,1,0,0,0,2,6,5,5,1,1,0,0,0, 2.74 , 20.52 ,18,18, 22.05 , 14.70 , 3.30 ,0,1,203,2,2,11,4,9,4,1,1,0,0,1,0,0,0,5,10,5,0,0,0,0,0,0, 2.79 , 40.52 ,18,18, 22.05 , 14.70 , 3.30 ,0,1,203,2,2,12,4,9,4,1,1,0,0,1,0,0,0,5,7,7,1,0,0,0,0,0, 2.81 , 20.62 ,18,18, 22.05 , 14.70 , 3.30 ,0,1,203,2,2,13,4,9,4,1,1,0,0,1,0,0,1,3,3,3,4,4,2,0,0,0, 2.80 , 20.74 ,27,27, 22.05 , 14.70 , 12.30 ,0,1,203,2,2,14,4,9,4,1,1,0,0,1,0,0,3,3,6,4,4,0,0,0,0,0, 22.85 , 40.54 ,15,15, 22.05 , 14.70 , 0.30 ,1,1,203,2,2,15,4,9,4,1,1,0,0,1,0,0,0,5,5,5,5,0,0,0,0,0, 2.84 , 20.64 ,26,26, 22.05 , 14.70 , 11.30 ,0,1,203,2,2,16,4,9,4,1,1,0,0,1,0,0,2,1,2,5,2,1,2,2,2,1, 2.75 , 20.53 ,17,17, 22.05 , 14.70 , 2.30 ,0,1,203,2,2,17,4,9,4,1,1,0,0,1,0,0,15,5,0,0,0,0,0,0,0,0, 2.61 , 20.46 ,2,2, 22.05 , 14.70 , 12.70 ,0,1,203,2,2,18,4,9,4,1,1,0,0,1,0,0,2,8,6,3,1,0,0,0,0,0, 2.97 , 20.72 ,29,29, 22.05 , 14.70 , 14.30 ,0,1,203,2,2,19,4,9,4,1,1,0,0,1,0,0,2,2,10,2,2,2,0,0,0,0, 2.76 , 20.54 ,9,9, 22.05 , 14.70 , 5.70 ,0,1,203,2,2,20,4,9,4,1,1,0,0,1,0,0,13,5,2,0,0,0,0,0,0,0, 2.74 , 20.69 ,4,4, 22.05 , 14.70 , 10.70 ,0,1,203,2,3,1,12,1,3,0,3,0,0,0,0,1,5,10,5,0,0,0,0,0,0,0, 2.64 , 23.37 ,9,9, 21.45 , 14.30 , 5.30 ,0,1,203,2,3,2,12,1,3,0,3,0,0,0,0,1,0,4,10,6,0,0,0,0,0,0, 2.38 , 23.00 ,22,22, 21.45 , 14.30 , 7.70 ,0,1,203,2,3,3,12,1,3,0,3,0,0,0,0,1,7,8,5,0,0,0,0,0,0,0, 2.78 , 23.46 ,9,9, 21.45 , 14.30 , 5.30 ,0,1,203,2,3,4,12,1,3,0,3,0,0,0,0,1,2,3,4,1,2,2,2,2,2,0, 2.69 , 23.18 ,30,30, 21.45 , 14.30 , 15.70 ,0,1,203,2,3,5,12,1,3,0,3,0,0,0,0,1,6,6,5,2,1,0,0,0,0,0, 2.82 , 23.29 ,8,8, 21.45 , 14.30 , 6.30 ,0,1,203,2,3,6,12,1,3,0,3,0,0,0,0,1,10,10,0,0,0,0,0,0,0,0, 2.74 , 23.56 ,8,8, 21.45 , 14.30 , 6.30 ,0,1,203,2,3,7,12,1,3,0,3,0,0,0,0,1,2,9,3,1,2,0,1,2,0,0, 2.57 , 23.24 ,20,20, 21.45 , 14.30 , 5.70 ,0,1,203,2,3,8,12,1,3,0,3,0,0,0,0,1,1,3,4,2,2,2,1,2,2,1, 2.64 , 22.92 ,26,26, 21.45 , 14.30 , 11.70 ,0,1,203,2,3,9,12,1,3,0,3,0,0,0,0,1,2,2,2,2,2,2,2,2,2,2, 2.69 , 23.46 ,50,50, 21.45 , 14.30 , 35.70 ,0,1,203,2,3,10,12,1,3,0,3,0,0,0,0,1,10,10,0,0,0,0,0,0,0,0, 22.74 , 43.26 ,10,10, 21.45 , 14.30 , 4.30 ,1,1,203,2,3,11,12,1,3,0,3,0,0,0,0,1,6,10,4,0,0,0,0,0,0,0, 2.68 , 43.20 ,8,8, 21.45 , 14.30 , 6.30 ,0,1,203,2,3,12,12,1,3,0,3,0,0,0,0,1,15,5,0,0,0,0,0,0,0,0, 2.89 , 23.51 ,6,6, 21.45 , 14.30 , 8.30 ,0,1,203,2,3,13,12,1,3,0,3,0,0,0,0,1,5,6,3,2,1,1,1,0,0,1, 2.79 , 23.53 ,100,100, 21.45 , 14.30 , 85.70 ,0,1,203,2,3,14,12,1,3,0,3,0,0,0,0,1,0,2,2,8,4,0,0,1,2,1, 2.46 , 43.00 ,42,42, 21.45 , 14.30 , 27.70 ,0,1,203,2,3,15,12,1,3,0,3,0,0,0,0,1,0,10,10,0,0,0,0,0,0,0, 2.29 , 22.93 ,9,9, 21.45 , 14.30 , 5.30 ,0,1,203,2,3,16,12,1,3,0,3,0,0,0,0,1,1,1,2,1,2,2,3,4,2,2, 2.61 , 23.13 ,43,43, 21.45 , 14.30 , 28.70 ,0,1,203,2,3,17,12,1,3,0,3,0,0,0,0,1,13,5,1,1,0,0,0,0,0,0, 2.92 , 23.38 ,5,5, 21.45 , 14.30 , 9.30 ,0,1,203,2,3,18,12,1,3,0,3,0,0,0,0,1,9,7,3,1,0,0,0,0,0,0, 2.86 , 23.58 ,9,9, 21.45 , 14.30 , 5.30 ,0,1,203,2,3,19,12,1,3,0,3,0,0,0,0,1,9,7,2,1,1,0,0,0,0,0, 2.87 , 23.41 ,8,8, 21.45 , 14.30 , 6.30 ,0,1,203,2,3,20,12,1,3,0,3,0,0,0,0,1,10,7,3,0,0,0,0,0,0,0, 2.88 , 23.57 ,7,7, 21.45 , 14.30 , 7.30 ,0,1,203,2,4,1,8,10,0,0,0,1,0,0,0,1,15,3,2,0,0,0,0,0,0,0, 6.74 , 30.11 ,12,12, 17.55 , 11.70 , 0.30 ,1,5,203,2,4,2,8,10,0,0,0,1,0,0,0,1,5,10,5,0,0,0,0,0,0,0, 2.91 , 25.91 ,15,15, 17.55 , 11.70 , 3.30 ,0,5,203,2,4,3,8,10,0,0,0,1,0,0,0,1,11,4,3,2,0,0,0,0,0,0, 2.85 , 26.31 ,11,11, 17.55 , 11.70 , 0.70 ,0,5,203,2,4,4,8,10,0,0,0,1,0,0,0,1,10,1,1,1,2,1,1,1,1,1, 2.77 , 25.95 ,6,6, 17.55 , 11.70 , 5.70 ,0,5,203,2,4,5,8,10,0,0,0,1,0,0,0,1,5,10,4,1,0,0,0,0,0,0, 2.93 , 26.22 ,10,10, 17.55 , 11.70 , 1.70 ,0,5,203,2,4,6,8,10,0,0,0,1,0,0,0,1,8,10,2,0,0,0,0,0,0,0, 2.99 , 26.54 ,10,10, 17.55 , 11.70 , 1.70 ,0,5,203,2,4,7,8,10,0,0,0,1,0,0,0,1,10,7,2,0,1,0,0,0,0,0, 6.95 , 30.19 ,12,12, 17.55 , 11.70 , 0.30 ,1,5,203,2,4,8,8,10,0,0,0,1,0,0,0,1,13,4,2,0,0,0,0,0,0,1, 6.84 , 29.76 ,12,12, 17.55 , 11.70 , 0.30 ,1,5,203,2,4,9,8,10,0,0,0,1,0,0,0,1,10,1,2,3,2,2,0,0,0,0, 2.74 , 26.20 ,14,14, 17.55 , 11.70 , 2.30 ,0,5,203,2,4,10,8,10,0,0,0,1,0,0,0,1,15,2,2,1,0,0,0,0,0,0, 2.70 , 45.96 ,7,7, 17.55 , 11.70 , 4.70 ,0,5,203,2,4,11,8,10,0,0,0,1,0,0,0,1,7,9,4,0,0,0,0,0,0,0, 2.95 , 46.15 ,9,9, 17.55 , 11.70 , 2.70 ,0,5,203,2,4,12,8,10,0,0,0,1,0,0,0,1,12,7,1,0,0,0,0,0,0,0, 2.93 , 26.44 ,10,10, 17.55 , 11.70 , 1.70 ,0,5,203,2,4,13,8,10,0,0,0,1,0,0,0,1,14,3,2,0,0,0,0,0,0,1, 2.78 , 26.30 ,100,100, 17.55 , 11.70 , 88.30 ,0,5,203,2,4,14,8,10,0,0,0,1,0,0,0,1,2,9,5,3,0,0,0,0,1,0, 2.82 , 45.81 ,14,14, 17.55 , 11.70 , 2.30 ,0,5,203,2,4,15,8,10,0,0,0,1,0,0,0,1,5,5,5,5,0,0,0,0,0,0, 2.79 , 25.72 ,9,9, 17.55 , 11.70 , 2.70 ,0,5,203,2,4,16,8,10,0,0,0,1,0,0,0,1,1,2,2,0,2,2,3,3,5,0, 2.59 , 25.72 ,55,55, 17.55 , 11.70 , 43.30 ,0,5,203,2,4,17,8,10,0,0,0,1,0,0,0,1,15,4,1,0,0,0,0,0,0,0, 2.78 , 26.16 ,5,5, 17.55 , 11.70 , 6.70 ,0,5,203,2,4,18,8,10,0,0,0,1,0,0,0,1,6,9,3,1,0,0,0,0,1,0, 2.96 , 26.54 ,16,16, 17.55 , 11.70 , 4.30 ,0,5,203,2,4,19,8,10,0,0,0,1,0,0,0,1,2,7,5,3,2,0,1,0,0,0, 6.79 , 30.20 ,12,12, 17.55 , 11.70 , 0.30 ,1,5,203,2,4,20,8,10,0,0,0,1,0,0,0,1,8,8,4,0,0,0,0,0,0,0, 6.95 , 30.51 ,12,12, 17.55 , 11.70 , 0.30 ,1,5,203,2,5,1,10,9,1,0,0,0,0,0,0,0,9,10,0,0,0,0,0,1,0,0, 2.99 , 33.10 ,9,9, 11.05 , 7.37 , 1.63 ,0,1,203,2,5,2,10,9,1,0,0,0,0,0,0,0,7,10,3,0,0,0,0,0,0,0, 2.97 , 28.87 ,10,10, 11.05 , 7.37 , 2.63 ,0,1,203,2,5,3,10,9,1,0,0,0,0,0,0,0,11,7,2,0,0,0,0,0,0,0, 2.99 , 29.30 ,9,9, 11.05 , 7.37 , 1.63 ,0,1,203,2,5,4,10,9,1,0,0,0,0,0,0,0,2,1,10,1,1,1,1,1,1,1, 2.46 , 28.41 ,12,12, 11.05 , 7.37 , 4.63 ,0,1,203,2,5,5,10,9,1,0,0,0,0,0,0,0,10,5,4,1,0,0,0,0,0,0, 2.94 , 29.16 ,10,10, 11.05 , 7.37 , 2.63 ,0,1,203,2,5,6,10,9,1,0,0,0,0,0,0,0,6,12,2,0,0,0,0,0,0,0, 2.94 , 29.48 ,14,14, 11.05 , 7.37 , 6.63 ,0,1,203,2,5,7,10,9,1,0,0,0,0,0,0,0,10,7,2,0,0,0,0,0,0,1, 2.99 , 33.18 ,11,11, 11.05 , 7.37 , 3.63 ,0,1,203,2,5,8,10,9,1,0,0,0,0,0,0,0,5,5,1,3,0,1,0,0,3,2, 2.84 , 32.60 ,11,11, 11.05 , 7.37 , 3.63 ,0,1,203,2,5,9,10,9,1,0,0,0,0,0,0,0,8,10,1,1,0,0,0,0,0,0, 2.99 , 29.19 ,20,20, 11.05 , 7.37 , 12.63 ,0,1,203,2,5,10,10,9,1,0,0,0,0,0,0,0,5,10,3,2,0,0,0,0,0,0, 2.92 , 48.87 ,5,5, 11.05 , 7.37 , 2.37 ,0,1,203,2,5,11,10,9,1,0,0,0,0,0,0,0,9,11,0,0,0,0,0,0,0,0, 2.99 , 49.13 ,8,8, 11.05 , 7.37 , 0.63 ,0,1,203,2,5,12,10,9,1,0,0,0,0,0,0,0,8,9,1,0,0,1,0,1,0,0, 2.99 , 29.42 ,11,11, 11.05 , 7.37 , 3.63 ,0,1,203,2,5,13,10,9,1,0,0,0,0,0,0,0,4,10,5,1,0,0,0,0,0,0, 2.87 , 29.17 ,11,11, 11.05 , 7.37 , 3.63 ,0,1,203,2,5,14,10,9,1,0,0,0,0,0,0,0,6,10,4,0,0,0,0,0,0,0, 2.94 , 48.75 ,9,9, 11.05 , 7.37 , 1.63 ,0,1,203,2,5,15,10,9,1,0,0,0,0,0,0,0,10,10,0,0,0,0,0,0,0,0, 3.00 , 28.71 ,10,10, 11.05 , 7.37 , 2.63 ,0,1,203,2,5,16,10,9,1,0,0,0,0,0,0,0,2,1,3,6,3,1,0,1,1,2, 2.54 , 28.26 ,23,23, 11.05 , 7.37 , 15.63 ,0,1,203,2,5,17,10,9,1,0,0,0,0,0,0,0,8,8,2,2,0,0,0,0,0,0, 22.98 , 49.13 ,7,7, 11.05 , 7.37 , 0.37 ,1,1,203,2,5,18,10,9,1,0,0,0,0,0,0,0,7,9,2,0,0,1,0,0,0,1, 2.97 , 29.51 ,11,11, 11.05 , 7.37 , 3.63 ,0,1,203,2,5,19,10,9,1,0,0,0,0,0,0,0,7,8,5,0,0,0,0,0,0,0, 2.94 , 33.13 ,11,11, 11.05 , 7.37 , 3.63 ,0,1,203,2,5,20,10,9,1,0,0,0,0,0,0,0,10,7,3,0,0,0,0,0,0,0, 2.98 , 33.49 ,9,9, 11.05 , 7.37 , 1.63 ,0,1,203,3,1,1,3,1,4,5,5,0,1,0,1,0,1,2,2,5,5,2,2,1,0,0, 2.96 , 17.96 ,50,50, 33.75 , 22.50 , 27.50 ,0,2,203,3,1,2,3,1,4,5,5,0,1,0,1,0,0,0,0,7,13,0,0,0,0,0, 12.76 , 27.76 ,23,23, 33.75 , 22.50 , 0.50 ,1,2,203,3,1,3,3,1,4,5,5,0,1,0,1,0,0,0,2,4,7,7,0,0,0,0, 2.83 , 17.83 ,24,24, 33.75 , 22.50 , 1.50 ,0,2,203,3,1,4,3,1,4,5,5,0,1,0,1,0,11,4,3,1,1,0,0,0,0,0, 2.73 , 17.73 ,3,3, 33.75 , 22.50 , 19.50 ,0,2,203,3,1,5,3,1,4,5,5,0,1,0,1,0,0,0,3,4,5,6,2,0,0,0, 2.88 , 17.88 ,30,30, 33.75 , 22.50 , 7.50 ,0,2,203,3,1,6,3,1,4,5,5,0,1,0,1,0,0,0,0,6,7,4,3,0,0,0, 2.87 , 17.87 ,38,38, 33.75 , 22.50 , 15.50 ,0,2,203,3,1,7,3,1,4,5,5,0,1,0,1,0,2,2,2,2,2,2,2,2,2,2, 2.91 , 17.91 ,38,38, 33.75 , 22.50 , 15.50 ,0,2,203,3,1,8,3,1,4,5,5,0,1,0,1,0,0,0,0,5,5,5,5,0,0,0, 2.83 , 17.83 ,35,35, 33.75 , 22.50 , 12.50 ,0,2,203,3,1,9,3,1,4,5,5,0,1,0,1,0,0,2,3,10,4,1,0,0,0,0, 12.90 , 27.90 ,22,22, 33.75 , 22.50 , 0.50 ,1,2,203,3,1,10,3,1,4,5,5,0,1,0,1,0,0,0,5,5,0,5,5,0,0,0, 2.81 , 17.81 ,42,42, 33.75 , 22.50 , 19.50 ,0,2,203,3,1,11,3,1,4,5,5,0,1,0,1,0,0,2,0,8,0,5,5,0,0,0, 2.75 , 17.75 ,11,11, 33.75 , 22.50 , 11.50 ,0,2,203,3,1,12,3,1,4,5,5,0,1,0,1,0,0,0,0,0,0,5,0,10,0,5, 2.43 , 17.43 ,90,90, 33.75 , 22.50 , 67.50 ,0,2,203,3,1,13,3,1,4,5,5,0,1,0,1,0,0,0,2,6,2,5,2,3,0,0, 2.85 , 17.85 ,45,45, 33.75 , 22.50 , 22.50 ,0,2,203,3,1,14,3,1,4,5,5,0,1,0,1,0,0,2,3,1,4,5,3,2,0,0, 2.85 , 17.85 ,33,33, 33.75 , 22.50 , 10.50 ,0,2,203,3,1,15,3,1,4,5,5,0,1,0,1,0,4,2,1,2,0,0,3,4,0,4, 2.80 , 17.80 ,61,61, 33.75 , 22.50 , 38.50 ,0,2,203,3,1,16,3,1,4,5,5,0,1,0,1,0,0,0,4,3,8,4,1,0,0,0, 2.90 , 17.90 ,34,34, 33.75 , 22.50 , 11.50 ,0,2,203,3,1,17,3,1,4,5,5,0,1,0,1,0,0,0,1,4,7,5,3,0,0,0, 2.87 , 17.87 ,43,43, 33.75 , 22.50 , 20.50 ,0,2,203,3,1,18,3,1,4,5,5,0,1,0,1,0,5,5,5,1,0,0,0,0,0,4, 2.80 , 17.80 ,5,5, 33.75 , 22.50 , 17.50 ,0,2,203,3,1,19,3,1,4,5,5,0,1,0,1,0,0,0,0,0,5,2,13,0,0,0, 2.50 , 17.50 ,43,43, 33.75 , 22.50 , 20.50 ,0,2,203,3,1,20,3,1,4,5,5,0,1,0,1,0,5,0,0,0,10,0,0,0,0,5, 2.76 , 17.76 ,5,5, 33.75 , 22.50 , 17.50 ,0,2,203,3,2,1,2,11,1,3,1,0,2,0,0,0,0,0,0,1,5,5,5,2,1,1, 2.54 , 20.50 ,43,43, 24.58 , 16.39 , 26.61 ,0,3,203,3,2,2,2,11,1,3,1,0,2,0,0,0,0,8,8,4,0,0,0,0,0,0, 9.50 , 37.26 ,16,16, 24.58 , 16.39 , 0.39 ,1,3,203,3,2,3,2,11,1,3,1,0,2,0,0,0,0,4,4,8,4,0,0,0,0,0, 2.75 , 20.58 ,18,18, 24.58 , 16.39 , 1.61 ,0,3,203,3,2,4,2,11,1,3,1,0,2,0,0,0,4,7,5,3,1,0,0,0,0,0, 2.90 , 20.63 ,15,15, 24.58 , 16.39 , 1.39 ,0,3,203,3,2,5,2,11,1,3,1,0,2,0,0,0,3,3,4,6,3,1,0,0,0,0, 2.77 , 20.65 ,12,12, 24.58 , 16.39 , 4.39 ,0,3,203,3,2,6,2,11,1,3,1,0,2,0,0,0,3,5,4,5,3,0,0,0,0,0, 2.86 , 20.73 ,17,17, 24.58 , 16.39 , 0.61 ,0,3,203,3,2,7,2,11,1,3,1,0,2,0,0,0,0,2,2,5,5,2,2,2,0,0, 2.72 , 20.62 ,0,0, 24.58 , 16.39 , 16.39 ,0,3,203,3,2,8,2,11,1,3,1,0,2,0,0,0,0,0,10,5,5,0,0,0,0,0, 2.43 , 20.26 ,20,20, 24.58 , 16.39 , 3.61 ,0,3,203,3,2,9,2,11,1,3,1,0,2,0,0,0,5,7,5,3,0,0,0,0,0,0, 2.89 , 30.79 ,15,15, 24.58 , 16.39 , 1.39 ,0,3,203,3,2,10,2,11,1,3,1,0,2,0,0,0,0,2,3,8,3,3,1,0,0,0, 2.68 , 20.49 ,34,34, 24.58 , 16.39 , 17.61 ,0,3,203,3,2,11,2,11,1,3,1,0,2,0,0,0,2,5,5,8,0,0,0,0,0,0, 2.80 , 20.54 ,11,11, 24.58 , 16.39 , 5.39 ,0,3,203,3,2,12,2,11,1,3,1,0,2,0,0,0,0,2,1,3,0,3,5,2,4,0, 2.69 , 20.12 ,66.6,66.6, 24.58 , 16.39 , 50.21 ,0,3,203,3,2,13,2,11,1,3,1,0,2,0,0,0,0,0,3,4,5,5,1,2,0,0, 2.56 , 20.41 ,68,68, 24.58 , 16.39 , 51.61 ,0,3,203,3,2,14,2,11,1,3,1,0,2,0,0,0,0,2,3,3,2,4,0,5,1,0, 9.33 , 27.17 ,16,16, 24.58 , 16.39 , 0.39 ,1,3,203,3,2,15,2,11,1,3,1,0,2,0,0,0,2,1,2,3,3,0,1,5,1,2, 9.33 , 27.12 ,16,16, 24.58 , 16.39 , 0.39 ,1,3,203,3,2,16,2,11,1,3,1,0,2,0,0,0,2,6,7,1,2,2,0,0,0,0, 2.82 , 20.72 ,13,13, 24.58 , 16.39 , 3.39 ,0,3,203,3,2,17,2,11,1,3,1,0,2,0,0,0,0,1,3,6,7,1,2,0,0,0, 2.62 , 20.48 ,39,39, 24.58 , 16.39 , 22.61 ,0,3,203,3,2,18,2,11,1,3,1,0,2,0,0,0,1,2,4,4,3,2,1,0,0,3, 2.73 , 20.53 ,27,27, 24.58 , 16.39 , 10.61 ,0,3,203,3,2,19,2,11,1,3,1,0,2,0,0,0,0,0,1,8,5,5,0,0,1,0, 2.51 , 20.01 ,35,35, 24.58 , 16.39 , 18.61 ,0,3,203,3,2,20,2,11,1,3,1,0,2,0,0,0,5,3,2,0,0,5,0,1,0,4, 2.68 , 20.43 ,10,10, 24.58 , 16.39 , 6.39 ,0,3,203,3,3,1,5,9,4,1,0,0,0,1,0,0,0,4,5,4,4,3,0,0,0,0, 2.79 , 23.28 ,23,23, 19.80 , 13.20 , 9.80 ,0,2,203,3,3,2,5,9,4,1,0,0,0,1,0,0,8,8,4,0,0,0,0,0,0,0, 2.97 , 40.23 ,9,9, 19.80 , 13.20 , 4.20 ,0,2,203,3,3,3,5,9,4,1,0,0,0,1,0,0,3,10,5,2,0,0,0,0,0,0, 2.98 , 23.56 ,17,17, 19.80 , 13.20 , 3.80 ,0,2,203,3,3,4,5,9,4,1,0,0,0,1,0,0,5,14,0,0,0,0,1,0,0,0, 2.89 , 23.52 ,9,9, 19.80 , 13.20 , 4.20 ,0,2,203,3,3,5,5,9,4,1,0,0,0,1,0,0,4,13,2,1,0,0,0,0,0,0, 2.95 , 23.59 ,10,10, 19.80 , 13.20 , 3.20 ,0,2,203,3,3,6,5,9,4,1,0,0,0,1,0,0,6,12,1,1,0,0,0,0,0,0, 12.95 , 33.68 ,12,12, 19.80 , 13.20 , 1.20 ,1,2,203,3,3,7,5,9,4,1,0,0,0,1,0,0,0,7,7,2,2,2,0,0,0,0, 2.88 , 23.50 ,23,23, 19.80 , 13.20 , 9.80 ,0,2,203,3,3,8,5,9,4,1,0,0,0,1,0,0,7,10,3,0,0,0,0,0,0,0, 2.98 , 23.24 ,9,9, 19.80 , 13.20 , 4.20 ,0,2,203,3,3,9,5,9,4,1,0,0,0,1,0,0,7,10,3,0,0,0,0,0,0,0, 12.98 , 43.77 ,12,12, 19.80 , 13.20 , 1.20 ,1,2,203,3,3,10,5,9,4,1,0,0,0,1,0,0,1,6,6,5,2,0,0,0,0,0, 2.88 , 23.36 ,23,23, 19.80 , 13.20 , 9.80 ,0,2,203,3,3,11,5,9,4,1,0,0,0,1,0,0,3,15,2,0,0,0,0,0,0,0, 2.89 , 23.43 ,11,11, 19.80 , 13.20 , 2.20 ,0,2,203,3,3,12,5,9,4,1,0,0,0,1,0,0,1,3,2,1,4,3,2,0,4,0, 2.75 , 22.87 ,40,40, 19.80 , 13.20 , 26.80 ,0,2,203,3,3,13,5,9,4,1,0,0,0,1,0,0,0,2,5,0,0,3,2,6,2,0, 2.71 , 23.12 ,74,74, 19.80 , 13.20 , 60.80 ,0,2,203,3,3,14,5,9,4,1,0,0,0,1,0,0,7,10,1,0,2,0,0,0,0,0, 2.95 , 30.12 ,11,11, 19.80 , 13.20 , 2.20 ,0,2,203,3,3,15,5,9,4,1,0,0,0,1,0,0,4,2,3,3,2,2,1,2,0,1, 2.84 , 29.96 ,19,19, 19.80 , 13.20 , 5.80 ,0,2,203,3,3,16,5,9,4,1,0,0,0,1,0,0,9,7,2,2,0,0,0,0,0,0, 2.94 , 23.65 ,9,9, 19.80 , 13.20 , 4.20 ,0,2,203,3,3,17,5,9,4,1,0,0,0,1,0,0,2,2,4,5,4,3,0,0,0,0, 2.75 , 23.23 ,20,20, 19.80 , 13.20 , 6.80 ,0,2,203,3,3,18,5,9,4,1,0,0,0,1,0,0,0,8,8,2,1,1,0,0,0,0, 2.89 , 23.41 ,17,17, 19.80 , 13.20 , 3.80 ,0,2,203,3,3,19,5,9,4,1,0,0,0,1,0,0,1,13,0,4,1,0,0,1,0,0, 2.86 , 22.87 ,28,28, 19.80 , 13.20 , 14.80 ,0,2,203,3,3,20,5,9,4,1,0,0,0,1,0,0,3,4,0,4,3,3,0,3,0,0, 2.81 , 23.24 ,20,20, 19.80 , 13.20 , 6.80 ,0,2,203,3,4,1,7,11,2,0,0,0,0,0,0,0,2,8,4,2,2,1,0,0,0,1, 2.88 , 26.16 ,19,19, 12.66 , 8.44 , 10.56 ,0,2,203,3,4,2,7,11,2,0,0,0,0,0,0,0,5,15,0,0,0,0,0,0,0,0, 12.94 , 53.17 ,9,9, 12.66 , 8.44 , 0.56 ,1,2,203,3,4,3,7,11,2,0,0,0,0,0,0,0,5,10,3,2,0,0,0,0,0,0, 2.98 , 26.53 ,13,13, 12.66 , 8.44 , 4.56 ,0,2,203,3,4,4,7,11,2,0,0,0,0,0,0,0,3,12,3,1,0,0,0,1,0,0, 2.95 , 26.47 ,11,11, 12.66 , 8.44 , 2.56 ,0,2,203,3,4,5,7,11,2,0,0,0,0,0,0,0,3,12,3,1,0,0,1,0,0,0, 2.95 , 26.54 ,12,12, 12.66 , 8.44 , 3.56 ,0,2,203,3,4,6,7,11,2,0,0,0,0,0,0,0,7,11,2,0,0,0,0,0,0,0, 3.00 , 36.68 ,12,12, 12.66 , 8.44 , 3.56 ,0,2,203,3,4,7,7,11,2,0,0,0,0,0,0,0,4,6,6,2,2,0,0,0,0,0, 2.86 , 26.36 ,13,13, 12.66 , 8.44 , 4.56 ,0,2,203,3,4,8,7,11,2,0,0,0,0,0,0,0,7,10,3,0,0,0,0,0,0,0, 3.00 , 26.23 ,10,10, 12.66 , 8.44 , 1.56 ,0,2,203,3,4,9,7,11,2,0,0,0,0,0,0,0,8,10,2,0,0,0,0,0,0,0, 3.00 , 46.76 ,12,12, 12.66 , 8.44 , 3.56 ,0,2,203,3,4,10,7,11,2,0,0,0,0,0,0,0,4,8,5,3,0,0,0,0,0,0, 2.91 , 26.27 ,12,12, 12.66 , 8.44 , 3.56 ,0,2,203,3,4,11,7,11,2,0,0,0,0,0,0,0,3,15,1,1,0,0,0,0,0,0, 2.92 , 26.34 ,11,11, 12.66 , 8.44 , 2.56 ,0,2,203,3,4,12,7,11,2,0,0,0,0,0,0,0,5,3,2,3,2,3,2,0,0,0, 2.77 , 25.63 ,22.2,22.2, 12.66 , 8.44 , 13.76 ,0,2,203,3,4,13,7,11,2,0,0,0,0,0,0,0,1,6,2,4,2,3,0,2,0,0, 2.77 , 25.88 ,24,24, 12.66 , 8.44 , 15.56 ,0,2,203,3,4,14,7,11,2,0,0,0,0,0,0,0,10,10,0,0,0,0,0,0,0,0, 12.97 , 43.09 ,9,9, 12.66 , 8.44 , 0.56 ,1,2,203,3,4,15,7,11,2,0,0,0,0,0,0,0,5,10,5,0,0,0,0,0,0,0, 2.97 , 32.92 ,7,7, 12.66 , 8.44 , 1.44 ,0,2,203,3,4,16,7,11,2,0,0,0,0,0,0,0,6,8,3,2,1,0,0,0,0,0, 2.96 , 26.61 ,10,10, 12.66 , 8.44 , 1.56 ,0,2,203,3,4,17,7,11,2,0,0,0,0,0,0,0,11,6,2,0,0,0,1,0,0,0, 2.90 , 26.13 ,3,3, 12.66 , 8.44 , 5.44 ,0,2,203,3,4,18,7,11,2,0,0,0,0,0,0,0,5,9,4,1,1,0,0,0,0,0, 2.97 , 26.38 ,10,10, 12.66 , 8.44 , 1.56 ,0,2,203,3,4,19,7,11,2,0,0,0,0,0,0,0,3,12,3,1,1,0,0,0,0,0, 2.95 , 25.82 ,19,19, 12.66 , 8.44 , 10.56 ,0,2,203,3,4,20,7,11,2,0,0,0,0,0,0,0,4,5,1,0,3,7,0,0,0,0, 2.74 , 25.98 ,15,15, 12.66 , 8.44 , 6.56 ,0,2,203,3,5,1,17,2,1,0,0,0,0,0,0,0,5,12,2,1,0,0,0,0,0,0, 2.39 , 28.55 ,7,7, 7.70 , 5.13 , 1.87 ,0,4,203,3,5,2,17,2,1,0,0,0,0,0,0,0,15,5,0,0,0,0,0,0,0,0, 2.97 , 56.13 ,7,7, 7.70 , 5.13 , 1.87 ,0,4,203,3,5,3,17,2,1,0,0,0,0,0,0,0,10,6,4,0,0,0,0,0,0,0, 2.82 , 29.35 ,7,7, 7.70 , 5.13 , 1.87 ,0,4,203,3,5,4,17,2,1,0,0,0,0,0,0,0,12,7,1,0,0,0,0,0,0,0, 2.88 , 29.35 ,6,6, 7.70 , 5.13 , 0.87 ,0,4,203,3,5,5,17,2,1,0,0,0,0,0,0,0,12,5,3,0,0,0,0,0,0,0, 7.90 , 34.45 ,5,5, 7.70 , 5.13 , 0.13 ,1,4,203,3,5,6,17,2,1,0,0,0,0,0,0,0,12,7,1,0,0,0,0,0,0,0, 2.88 , 39.55 ,7,7, 7.70 , 5.13 , 1.87 ,0,4,203,3,5,7,17,2,1,0,0,0,0,0,0,0,10,5,5,0,0,0,0,0,0,0, 2.82 , 29.17 ,6,6, 7.70 , 5.13 , 0.87 ,0,4,203,3,5,8,17,2,1,0,0,0,0,0,0,0,17,3,0,0,0,0,0,0,0,0, 3.00 , 29.23 ,3,3, 7.70 , 5.13 , 2.13 ,0,4,203,3,5,9,17,2,1,0,0,0,0,0,0,0,13,7,0,0,0,0,0,0,0,0, 7.90 , 54.66 ,5,5, 7.70 , 5.13 , 0.13 ,1,4,203,3,5,10,17,2,1,0,0,0,0,0,0,0,8,10,2,0,0,0,0,0,0,0, 2.64 , 28.91 ,10,10, 7.70 , 5.13 , 4.87 ,0,4,203,3,5,11,17,2,1,0,0,0,0,0,0,0,10,10,0,0,0,0,0,0,0,0, 2.72 , 29.06 ,4,4, 7.70 , 5.13 , 1.13 ,0,4,203,3,5,12,17,2,1,0,0,0,0,0,0,0,8,2,5,5,0,0,0,0,0,0, 2.70 , 28.33 ,24,24, 7.70 , 5.13 , 18.87 ,0,4,203,3,5,13,17,2,1,0,0,0,0,0,0,0,5,7,4,3,1,0,0,0,0,0, 2.53 , 28.41 ,12,12, 7.70 , 5.13 , 6.87 ,0,4,203,3,5,14,17,2,1,0,0,0,0,0,0,0,15,5,0,0,0,0,0,0,0,0, 2.97 , 46.05 ,6,6, 7.70 , 5.13 , 0.87 ,0,4,203,3,5,15,17,2,1,0,0,0,0,0,0,0,9,7,3,1,0,0,0,0,0,0, 2.77 , 35.69 ,4,4, 7.70 , 5.13 , 1.13 ,0,4,203,3,5,16,17,2,1,0,0,0,0,0,0,0,10,8,2,0,0,0,0,0,0,0, 7.79 , 34.40 ,5,5, 7.70 , 5.13 , 0.13 ,1,4,203,3,5,17,17,2,1,0,0,0,0,0,0,0,8,11,0,1,0,0,0,0,0,0, 2.59 , 28.72 ,10,10, 7.70 , 5.13 , 4.87 ,0,4,203,3,5,18,17,2,1,0,0,0,0,0,0,0,17,3,0,0,0,0,0,0,0,0, 8.00 , 34.37 ,5,5, 7.70 , 5.13 , 0.13 ,1,4,203,3,5,19,17,2,1,0,0,0,0,0,0,0,9,8,2,1,0,0,0,0,0,0, 2.75 , 28.56 ,12,12, 7.70 , 5.13 , 6.87 ,0,4,203,3,5,20,17,2,1,0,0,0,0,0,0,0,5,5,5,0,0,5,0,0,0,0, 2.52 , 28.50 ,9,9, 7.70 , 5.13 , 3.87 ,0,4,20